,Num_block,Block_ID,Trial_ID,Resp_loc,Resp_conf,Correct,RT_resp,RT_conf,Wager,N,x_mean,Sub_ID
0,1.0,1.0,1.0,31.0,4.0,1.0,13.033644681003352,2.523760792999383,12.0,2.0,30.990505702620453,1
1,1.0,1.0,2.0,52.0,6.0,0.0,5.546234664001531,1.0870517270013806,0.0,4.0,57.119697007435704,1
2,1.0,1.0,3.0,73.0,4.0,0.0,7.908278352999332,0.8188676630015834,0.0,2.0,75.67844052875444,1
3,1.0,1.0,4.0,63.0,22.0,1.0,6.70923114299876,1.9916619710020314,5.0,6.0,60.13506889818771,1
4,1.0,1.0,5.0,61.0,8.0,0.0,8.132033010999294,0.9642593770004169,0.0,3.0,74.87288579114012,1
5,1.0,1.0,6.0,57.0,14.0,0.0,7.4073260340010165,0.9308208590009599,0.0,4.0,36.451998843181535,1
6,1.0,1.0,7.0,50.0,8.0,1.0,2.6376089730001695,2.141399627998908,10.0,2.0,48.24269139876734,1
7,1.0,1.0,8.0,47.0,14.0,1.0,9.89880085799814,1.2640483659997699,7.0,5.0,45.70509181764586,1
8,1.0,1.0,9.0,33.0,12.0,1.0,10.217521288999706,0.8639675169979455,8.0,5.0,34.51843597920512,1
9,1.0,1.0,10.0,42.0,10.0,0.0,11.915162015000533,0.8340930349986593,0.0,3.0,49.167031236387196,1
10,1.0,1.0,11.0,48.0,14.0,0.0,8.915045996000117,1.4947112959998776,0.0,3.0,35.160024265468756,1
11,1.0,1.0,12.0,84.0,10.0,1.0,4.632582138001453,1.2871384250029223,9.0,2.0,84.4870148703811,1
12,1.0,1.0,13.0,58.0,12.0,1.0,7.8394171919971996,0.729220510002051,8.0,4.0,57.91445275221965,1
13,1.0,1.0,14.0,58.0,14.0,0.0,6.984353875999659,1.2809935980003502,0.0,6.0,45.47915376199137,1
14,1.0,1.0,15.0,64.0,14.0,0.0,11.319285355999455,2.1984686630021315,0.0,6.0,52.1619766675652,1
15,1.0,1.0,16.0,66.0,10.0,1.0,8.40852495099898,0.6792619539992302,9.0,5.0,61.20564501559669,1
16,1.0,1.0,17.0,43.0,20.0,1.0,6.633782799002802,1.2875012350014003,6.0,3.0,43.44067075487339,1
17,1.0,1.0,18.0,32.0,4.0,0.0,10.43233618999875,0.6306801319988153,0.0,2.0,27.95068079005825,1
18,1.0,1.0,19.0,26.0,6.0,1.0,8.964200572001573,2.5102303800013033,11.0,3.0,26.77021702142319,1
19,1.0,1.0,20.0,60.0,12.0,1.0,11.257430943001964,1.0064269229987985,8.0,6.0,60.91783433189036,1
20,1.0,1.0,21.0,52.0,12.0,1.0,9.691841251998994,0.5664749239986122,8.0,5.0,46.84094875736887,1
21,1.0,1.0,22.0,68.0,10.0,1.0,7.191387876999215,0.6184461720004037,9.0,3.0,69.63239742385916,1
22,1.0,1.0,23.0,27.0,10.0,1.0,10.184003325000958,1.4003297859999293,9.0,4.0,26.63645621533407,1
23,1.0,1.0,24.0,40.0,8.0,0.0,7.702776373000233,0.5273295049992157,0.0,6.0,46.17545081509011,1
24,1.0,1.0,25.0,45.0,20.0,1.0,9.61985988000015,1.10677972099802,6.0,4.0,40.28841635663037,1
25,1.0,1.0,26.0,58.0,24.0,1.0,7.659396294999169,1.4764488649998384,5.0,6.0,55.251801678290896,1
26,1.0,1.0,27.0,44.0,26.0,1.0,2.517840652999439,1.0448993480022182,4.0,5.0,51.395780920622585,1
27,1.0,1.0,28.0,82.0,8.0,1.0,9.244682402000763,0.9044792819986469,10.0,2.0,85.31029707025577,1
28,1.0,1.0,29.0,40.0,20.0,1.0,17.7819737610007,1.1009952569984307,6.0,6.0,38.588687778324946,1
29,1.0,1.0,30.0,65.0,10.0,1.0,11.270768111000507,0.7270805899970583,9.0,3.0,67.47996577290112,1
30,1.0,1.0,31.0,46.0,6.0,0.0,8.456411309998657,2.0678615899996657,0.0,6.0,51.44809413333419,1
31,1.0,1.0,32.0,53.0,2.0,1.0,5.4686696190001385,0.8326221099996474,14.0,2.0,52.70612717200562,1
32,1.0,1.0,33.0,64.0,2.0,0.0,8.338484764997702,1.0220253780025814,0.0,2.0,60.045751827900084,1
33,1.0,1.0,34.0,38.0,10.0,1.0,8.194658160002291,0.8288343670028553,9.0,5.0,40.76361256304589,1
34,1.0,1.0,35.0,55.0,6.0,0.0,7.047713089999888,0.6838255599977856,0.0,4.0,76.98843218184334,1
35,1.0,1.0,36.0,55.0,8.0,1.0,8.097846954999113,1.2294239170005312,10.0,5.0,54.642969653492756,1
36,1.0,1.0,37.0,46.0,14.0,1.0,10.56409541299945,0.5522083850009949,7.0,3.0,39.94568236655996,1
37,1.0,1.0,38.0,56.0,16.0,1.0,7.445263892001094,0.7096837099998083,7.0,5.0,53.78266469305724,1
38,1.0,1.0,39.0,66.0,0.0,1.0,6.584549524002796,1.5602261909989465,15.0,2.0,65.77010746506133,1
39,1.0,1.0,40.0,35.0,0.0,1.0,4.050681360000453,0.3380723650006985,15.0,2.0,35.07102416123162,1
40,1.0,1.0,41.0,54.0,6.0,1.0,10.383185511000192,1.5061879890017735,11.0,2.0,55.37433247759909,1
41,1.0,1.0,42.0,33.0,6.0,1.0,7.743523107998044,0.5358041840008809,11.0,4.0,33.51631698410405,1
42,1.0,1.0,43.0,42.0,10.0,1.0,11.877135102000466,0.7770593690001988,9.0,6.0,46.40248325215489,1
43,1.0,1.0,44.0,51.0,4.0,1.0,7.039466958001867,1.1001789859983546,12.0,4.0,52.017591785033545,1
44,1.0,1.0,45.0,59.0,6.0,0.0,10.267241541998374,1.6288316520003718,0.0,3.0,34.97115935087927,1
45,1.0,1.0,46.0,50.0,10.0,1.0,9.686385180000798,0.614582761998463,9.0,5.0,51.61379894420078,1
46,1.0,1.0,47.0,25.0,8.0,1.0,3.916283050999482,0.8289589359992533,10.0,4.0,25.361133424039124,1
47,1.0,1.0,48.0,43.0,6.0,0.0,5.712798862001364,0.642167005000374,0.0,4.0,47.840607773794005,1
48,1.0,1.0,49.0,41.0,18.0,1.0,4.722272201001033,1.3905732389976038,6.0,5.0,39.76761117694648,1
49,1.0,1.0,50.0,47.0,8.0,1.0,9.63384449699879,0.7769455309971818,10.0,3.0,45.40311822994954,1
50,1.0,1.0,51.0,66.0,4.0,1.0,7.521550270001171,1.0434096329991007,12.0,3.0,65.51822937536647,1
51,1.0,1.0,52.0,60.0,20.0,1.0,8.655692360996909,0.7542635269965103,6.0,6.0,60.85827040457906,1
52,1.0,1.0,53.0,70.0,12.0,1.0,8.27624008100247,0.6523075349978171,8.0,6.0,68.90295803186496,1
53,1.0,1.0,54.0,56.0,12.0,0.0,1.935672808001982,0.7624543429992627,0.0,6.0,65.18351069708045,1
54,1.0,1.0,55.0,35.0,14.0,1.0,6.231850348998705,0.6486759090003034,7.0,5.0,30.77870843916303,1
55,1.0,1.0,56.0,54.0,14.0,1.0,6.127401448000455,0.5701074009994045,7.0,5.0,57.9194797815277,1
56,1.0,1.0,57.0,43.0,8.0,1.0,6.107536424002319,0.5946651500016742,10.0,5.0,45.146426146833754,1
57,1.0,1.0,58.0,40.0,12.0,1.0,5.706024653001805,0.6528749830031302,8.0,3.0,39.48721221094966,1
58,1.0,1.0,59.0,33.0,16.0,1.0,8.877450407999277,0.7839277509992826,7.0,6.0,38.46093197119894,1
59,1.0,1.0,60.0,36.0,6.0,0.0,8.58776309500172,0.6242621630008216,0.0,3.0,32.53395936209103,1
60,1.0,1.0,61.0,48.0,0.0,1.0,9.12827542499872,0.5830091939969861,15.0,2.0,48.011673769357664,1
61,1.0,1.0,62.0,47.0,6.0,1.0,11.723377843998605,0.5326907290000236,11.0,6.0,45.66456617601984,1
62,1.0,1.0,63.0,38.0,28.0,1.0,3.7155948959989473,0.42043750500306487,4.0,6.0,37.94836744144624,1
63,1.0,1.0,64.0,47.0,8.0,0.0,13.34743442800027,0.7042478570001549,0.0,3.0,37.34295818514804,1
64,1.0,1.0,65.0,38.0,22.0,1.0,6.144265186001576,1.0930217169989191,5.0,3.0,46.44025373616819,1
65,1.0,1.0,66.0,50.0,8.0,1.0,11.171949626997957,0.534855437999795,10.0,3.0,47.215989611084176,1
66,1.0,1.0,67.0,42.0,12.0,0.0,7.311317158000747,1.5239419879981142,0.0,5.0,48.77658758453877,1
67,1.0,1.0,68.0,56.0,6.0,0.0,7.642035048000253,0.9990436379994208,0.0,2.0,60.79917279955778,1
68,1.0,1.0,69.0,35.0,2.0,0.0,13.843036523998308,0.7523180019998108,0.0,2.0,33.597348395368435,1
69,1.0,1.0,70.0,61.0,6.0,1.0,11.420221554999443,1.223212279001018,11.0,2.0,59.78869288058995,1
70,1.0,1.0,71.0,31.0,2.0,0.0,5.437589819997811,0.6343916940022609,0.0,4.0,33.01269613320234,1
71,1.0,1.0,72.0,66.0,8.0,1.0,6.8834830400010105,0.7788232839993725,10.0,3.0,69.25740623489713,1
72,1.0,1.0,73.0,40.0,20.0,1.0,8.06905713499873,0.4905376469978364,6.0,5.0,42.84270419982768,1
73,1.0,1.0,74.0,47.0,6.0,1.0,3.548434593998536,0.7203081549996568,11.0,4.0,46.08629643699696,1
74,1.0,1.0,75.0,45.0,6.0,1.0,5.185003212001902,0.6210959640011424,11.0,6.0,45.75242695448846,1
75,1.0,1.0,76.0,50.0,4.0,0.0,5.686465615999623,0.6362974799994845,0.0,4.0,54.29454151235559,1
76,1.0,1.0,77.0,40.0,16.0,1.0,7.390240556000208,2.0448619829985546,7.0,5.0,32.161451227513346,1
77,1.0,1.0,78.0,52.0,10.0,1.0,3.784930374000396,0.5438766400002351,9.0,4.0,47.156073159363956,1
78,1.0,1.0,79.0,36.0,6.0,1.0,9.401891991001321,0.6252765230019577,11.0,3.0,36.73812354864866,1
79,1.0,1.0,80.0,51.0,12.0,1.0,6.583461685997463,1.73800680000204,8.0,3.0,52.548349909293755,1
80,1.0,1.0,81.0,17.0,0.0,1.0,10.222996677999618,0.683740933000081,15.0,2.0,17.24510645614873,1
81,1.0,1.0,82.0,40.0,20.0,1.0,11.797823772998527,0.5394151159998728,6.0,5.0,44.644361778893575,1
82,1.0,1.0,83.0,30.0,12.0,1.0,11.638056174997473,0.615708214998449,8.0,4.0,34.61844935107559,1
83,1.0,1.0,84.0,48.0,24.0,1.0,6.490974123000342,0.6869978790018649,5.0,6.0,59.129226410475916,1
84,1.0,1.0,85.0,49.0,6.0,1.0,5.514425949000724,0.47576899500199943,11.0,6.0,46.38284131109905,1
85,1.0,1.0,86.0,68.0,12.0,1.0,6.174733083000319,0.7660968899981526,8.0,5.0,67.54009441704883,1
86,1.0,1.0,87.0,48.0,2.0,1.0,10.514812617002463,2.0455567319986585,14.0,2.0,48.3261473732714,1
87,1.0,1.0,88.0,43.0,12.0,1.0,9.068520462999004,0.9755765800000518,8.0,5.0,37.82448548911543,1
88,1.0,1.0,89.0,31.0,4.0,1.0,8.804651589998684,0.6803326219996961,12.0,4.0,31.85502482713059,1
89,1.0,1.0,90.0,81.0,6.0,1.0,12.675251998000022,1.4448751019990596,11.0,3.0,82.51422477567526,1
90,1.0,1.0,91.0,27.0,10.0,1.0,10.297952263001207,0.37610913299795357,9.0,6.0,30.69601407373798,1
91,1.0,1.0,92.0,60.0,2.0,1.0,4.854066107000108,1.0074286650014983,14.0,2.0,60.31960239112172,1
92,1.0,1.0,93.0,38.0,6.0,1.0,6.290156033999665,0.6446524660022988,11.0,5.0,40.909877490400426,1
93,1.0,1.0,94.0,38.0,12.0,0.0,9.152140330999828,0.6430523999988509,0.0,3.0,52.64971465799646,1
94,1.0,1.0,95.0,70.0,2.0,1.0,5.4228210159999435,1.4220451209985185,14.0,2.0,69.54498668127663,1
95,1.0,1.0,96.0,26.0,4.0,0.0,6.042181901000731,1.5997918430002755,0.0,4.0,21.692196285839046,1
96,1.0,1.0,97.0,10.0,2.0,0.0,6.024768420000328,0.8201986690000922,0.0,2.0,17.747293599206177,1
97,1.0,1.0,98.0,56.0,8.0,0.0,23.62757469600183,0.6221216400008416,0.0,4.0,81.0872208244055,1
98,1.0,1.0,99.0,61.0,12.0,0.0,4.565471834001073,0.4599122939980589,0.0,4.0,80.31489870418783,1
99,1.0,1.0,100.0,36.0,4.0,1.0,5.543379563001508,0.4032362119978643,12.0,4.0,33.87220093214548,1
100,1.0,1.0,101.0,46.0,12.0,0.0,5.104239525000594,0.5057205040029658,0.0,5.0,52.3268244827565,1
101,1.0,1.0,102.0,65.0,14.0,1.0,7.80092191699805,2.350260341001558,7.0,4.0,59.69926808724628,1
102,1.0,1.0,103.0,36.0,44.0,1.0,5.573656489999848,0.6096091819999856,2.0,5.0,35.046055779957776,1
103,1.0,1.0,104.0,60.0,8.0,1.0,8.741897494001023,0.6529069300013361,10.0,3.0,60.66068161011108,1
104,1.0,1.0,105.0,52.0,62.0,1.0,5.666276604999439,0.3532849510011147,1.0,5.0,48.632548137740095,1
105,1.0,1.0,106.0,29.0,32.0,0.0,0.9228923849987041,0.6424656099989079,0.0,6.0,64.30345841256722,1
106,1.0,1.0,107.0,56.0,16.0,1.0,8.839232197999081,2.1516268890009087,7.0,6.0,55.748221775628245,1
107,1.0,1.0,108.0,74.0,8.0,1.0,8.380861754998477,1.3569464730026084,10.0,2.0,74.54616214880008,1
108,1.0,1.0,109.0,68.0,6.0,0.0,8.419257042001846,0.7354548309995153,0.0,4.0,63.1918545174962,1
109,1.0,1.0,110.0,60.0,38.0,1.0,6.996665321999899,0.5701211919986235,2.0,4.0,65.01106281507664,1
110,1.0,1.0,111.0,61.0,0.0,1.0,4.203680327998882,0.36751182500302093,15.0,2.0,61.03795108102614,1
111,1.0,1.0,112.0,70.0,10.0,0.0,10.336790697001561,0.6603922030008107,0.0,6.0,63.64453420188476,1
112,1.0,1.0,113.0,49.0,0.0,1.0,5.574288045001595,2.1994209780023084,15.0,2.0,49.1554517064933,1
113,1.0,1.0,114.0,39.0,2.0,1.0,6.4756936820012925,1.8657455620013934,14.0,2.0,38.48497747620315,1
114,1.0,1.0,115.0,50.0,2.0,1.0,5.907184973002586,1.1859470589988632,14.0,2.0,50.60669979353186,1
115,1.0,1.0,116.0,35.0,6.0,1.0,5.11692016500092,1.7322337860023254,11.0,5.0,33.59092035503369,1
116,1.0,1.0,117.0,34.0,0.0,1.0,10.619828610000695,0.17056426500130328,15.0,2.0,33.791757997642605,1
117,1.0,1.0,118.0,18.0,0.0,1.0,6.728751357000874,0.299357489002432,15.0,2.0,18.060359491365197,1
118,1.0,1.0,119.0,10.0,4.0,1.0,10.735942123999848,0.6858459699978994,12.0,3.0,11.879312733986103,1
119,1.0,1.0,120.0,37.0,8.0,1.0,6.259999059002439,0.6884808469985728,10.0,6.0,35.14965868043648,1
120,1.0,1.0,121.0,18.0,8.0,0.0,8.370633998001722,0.3935497629972815,0.0,5.0,22.421219493333098,1
121,1.0,1.0,122.0,31.0,10.0,1.0,3.1092347480007447,0.4335245170004782,9.0,4.0,31.26240528879804,1
122,1.0,1.0,123.0,34.0,4.0,0.0,7.295592439000757,0.9747524079975847,0.0,4.0,37.93373923992047,1
123,1.0,1.0,124.0,67.0,12.0,1.0,7.349069926000084,0.8326317699975334,8.0,6.0,65.11528594403602,1
124,1.0,1.0,125.0,40.0,12.0,1.0,5.688979381000536,0.7085163000010652,8.0,3.0,39.4743540074177,1
125,1.0,1.0,126.0,78.0,6.0,1.0,5.338779941001121,0.7445586639987596,11.0,3.0,76.88341413159283,1
126,1.0,1.0,127.0,45.0,18.0,1.0,7.841087345001142,0.4196126489987364,6.0,3.0,47.80953971133147,1
127,1.0,1.0,128.0,75.0,8.0,1.0,5.893222523998702,0.42090919600013876,10.0,5.0,76.13257224229855,1
128,1.0,1.0,129.0,55.0,12.0,1.0,3.6281212819994835,0.5219621249998454,8.0,3.0,53.79036939795876,1
129,1.0,1.0,130.0,45.0,8.0,1.0,4.776508735001698,0.4490696399989247,10.0,6.0,41.857979972738676,1
130,1.0,1.0,131.0,65.0,4.0,1.0,5.384632995999709,0.5058784819993889,12.0,3.0,63.2446179576692,1
131,1.0,1.0,132.0,55.0,14.0,1.0,9.588594640001247,0.47122362699883524,7.0,6.0,59.818992944883945,1
132,1.0,1.0,133.0,14.0,0.0,1.0,4.130973643001198,0.5217408319986134,15.0,2.0,13.7159688706367,1
133,1.0,1.0,134.0,70.0,4.0,1.0,7.278941997999937,0.8666418680004426,12.0,2.0,68.69690678349244,1
134,1.0,1.0,135.0,26.0,12.0,1.0,7.766271180000331,0.653876415999548,8.0,4.0,28.372761861571718,1
135,1.0,1.0,136.0,34.0,8.0,1.0,7.100994904998515,0.609407457002817,10.0,3.0,31.052410898613328,1
136,1.0,1.0,137.0,61.0,16.0,1.0,3.4881063960019674,0.5329559889978555,7.0,4.0,57.83758140218913,1
137,1.0,1.0,138.0,48.0,12.0,1.0,4.244968005998089,0.5025519150003674,8.0,6.0,52.82804736437121,1
138,1.0,1.0,139.0,51.0,8.0,1.0,3.221213873999659,0.5481356139971467,10.0,4.0,50.888143727894125,1
139,1.0,1.0,140.0,73.0,8.0,1.0,6.355176154000219,0.6898208019993035,10.0,2.0,74.67796718136987,1
140,1.0,1.0,141.0,69.0,16.0,1.0,5.61599151900009,0.7703437290001602,7.0,6.0,69.19872488746903,1
141,1.0,1.0,142.0,19.0,10.0,1.0,6.421047929998167,0.5142490790021839,9.0,3.0,21.657406225776246,1
142,1.0,1.0,143.0,46.0,18.0,1.0,8.931150176998926,0.4476929430020391,6.0,5.0,45.38016843140264,1
143,1.0,1.0,144.0,52.0,26.0,1.0,9.274873898000806,0.7790114859999449,4.0,6.0,51.06796389343515,1
144,1.0,1.0,145.0,48.0,10.0,0.0,6.514450065998972,0.4955356629980088,0.0,4.0,54.53188219793992,1
145,1.0,1.0,146.0,50.0,30.0,1.0,2.6985717530005786,0.3743426859982719,3.0,4.0,49.02928103402424,1
146,1.0,1.0,147.0,43.0,30.0,1.0,3.2808415470026375,0.36454701000184286,3.0,5.0,44.927875056255814,1
147,1.0,1.0,148.0,52.0,8.0,0.0,8.425915681000333,0.41884751000179676,0.0,5.0,40.76001009722345,1
148,1.0,1.0,149.0,53.0,14.0,1.0,2.5982464290027565,0.3808989120007027,7.0,6.0,49.79152491194848,1
149,1.0,1.0,150.0,60.0,20.0,0.0,3.831375707999541,0.4382412699997076,0.0,5.0,45.37868193638319,1
150,0.0,2.0,1.0,59.125,8.5,1.0,6.219401267999984,1.3890533440000183,10.0,2.0,59.30863004227836,1
151,0.0,2.0,2.0,41.25,3.25,0.0,7.323906139999991,0.6371679100000165,0.0,3.0,35.71241095240921,1
152,0.0,2.0,3.0,46.75,1.0,1.0,3.69193778799999,1.105374587,14.0,2.0,47.00228078114685,1
153,0.0,2.0,4.0,72.625,4.25,0.0,4.4631177850000086,0.504658897000013,0.0,3.0,61.20724786067721,1
154,0.0,2.0,5.0,62.25,4.5,0.0,13.253821835999986,0.7018230099999982,0.0,5.0,56.95147669934763,1
155,0.0,2.0,6.0,47.5,2.75,0.0,1.8702786710000225,0.5161998819999951,0.0,2.0,50.86134115573758,1
156,0.0,2.0,7.0,28.375,4.75,0.0,7.523208194999995,0.6666124529999706,0.0,6.0,24.992380357240336,1
157,0.0,2.0,8.0,35.625,6.25,0.0,2.606848557000035,0.43871432099996355,0.0,4.0,43.06885766031295,1
158,0.0,2.0,9.0,54.375,3.5,0.0,3.328844647999972,0.4671733970000105,0.0,5.0,56.698166686242054,1
159,0.0,2.0,10.0,63.0,7.0,1.0,2.293835215999991,0.7704208849999645,11.0,6.0,62.0368383265683,1
160,0.0,2.0,11.0,39.75,10.75,1.0,2.7284293110000135,0.41351349199999277,9.0,6.0,42.43206084066187,1
161,0.0,2.0,12.0,55.125,2.0,1.0,2.4921128479999766,0.4563483109999993,14.0,5.0,54.84703753315297,1
162,0.0,2.0,13.0,38.75,14.75,0.0,1.938541138000005,0.3836960769999678,0.0,3.0,58.67436448881457,1
163,0.0,2.0,14.0,64.25,17.5,1.0,1.1526575220000268,0.3367865550000033,6.0,3.0,63.890000210602814,1
164,0.0,2.0,15.0,18.875,25.25,1.0,3.4623619520000375,0.37166991200001576,4.0,5.0,24.222398188551786,1
165,0.0,2.0,16.0,50.75,16.5,0.0,3.2800785449999807,0.43602454999995643,0.0,6.0,61.71504526016881,1
166,0.0,2.0,17.0,39.125,18.5,0.0,2.8443943209999816,0.7174143849999837,0.0,5.0,49.36929565051829,1
167,0.0,2.0,18.0,58.0,3.5,1.0,1.7254821450000009,0.5370949150000115,13.0,6.0,57.52358544529079,1
168,0.0,2.0,19.0,48.125,13.5,1.0,2.0730115619999765,0.36614981100001387,8.0,6.0,48.688478570817345,1
169,0.0,2.0,20.0,63.25,9.75,0.0,2.6765812109999843,0.29757313700002896,0.0,4.0,73.30368611804568,1
170,0.0,2.0,21.0,53.5,27.5,1.0,1.7423834909999982,0.3028576780000094,4.0,6.0,56.475116752585286,1
171,0.0,2.0,22.0,87.0,4.25,1.0,1.6148809749999486,0.5680895149999969,12.0,2.0,86.52793522845406,1
172,0.0,2.0,23.0,50.0,14.5,1.0,1.353619139999978,0.35300355699996544,7.0,2.0,51.31555882401158,1
173,0.0,2.0,24.0,71.875,1.0,1.0,2.404254441999967,0.4349760640000113,14.0,2.0,72.30925549298084,1
174,0.0,2.0,25.0,35.0,6.5,0.0,1.3048044210000285,0.35272765499996694,0.0,3.0,46.20888093926313,1
175,0.0,2.0,26.0,43.375,31.25,1.0,1.7915637159999847,0.3814443030000234,3.0,5.0,41.025780597448104,1
176,0.0,2.0,27.0,37.0,27.0,1.0,2.208553413000004,0.3148080579999828,4.0,6.0,38.23485973572891,1
177,0.0,2.0,28.0,37.5,14.0,1.0,1.3875536809999858,0.3038110999999617,7.0,6.0,40.62216564226679,1
178,0.0,2.0,29.0,64.625,24.5,0.0,0.8382848050000007,0.23819496700002674,0.0,6.0,77.10841069758102,1
179,0.0,2.0,30.0,44.125,35.75,1.0,1.370399856000006,0.36674731699997665,3.0,3.0,43.06153498023023,1
180,0.0,2.0,31.0,31.125,9.5,1.0,1.2059951349999665,0.33488875799997686,9.0,4.0,30.61425655030252,1
181,0.0,2.0,32.0,66.5,14.75,1.0,3.1941158850000306,0.3353600900000515,7.0,6.0,66.53374427471884,1
182,0.0,2.0,33.0,72.0,16.0,1.0,1.5876677610000343,0.2675142549999805,7.0,3.0,71.83990505572875,1
183,0.0,2.0,34.0,55.5,37.5,1.0,1.4174144749999869,0.27000722299999325,2.0,6.0,68.21287537136531,1
184,0.0,2.0,35.0,41.75,6.25,1.0,1.2148550449999789,0.30224535500002503,11.0,4.0,41.910282632510764,1
185,0.0,2.0,36.0,37.875,26.5,1.0,1.0373884549999843,1.1882040880000204,4.0,3.0,44.199471683480944,1
186,0.0,2.0,37.0,39.75,3.25,1.0,1.05268261599997,0.6320942400000149,13.0,2.0,40.22154026248461,1
187,0.0,2.0,38.0,59.75,4.0,0.0,3.0784076580000033,0.3029520750000074,0.0,6.0,56.26969914675636,1
188,0.0,2.0,39.0,49.75,15.5,0.0,2.8768365249999874,0.28731030500000543,0.0,4.0,58.74292879619074,1
189,0.0,2.0,40.0,35.125,7.5,0.0,1.6053863779999915,0.26904419800001733,0.0,3.0,30.91925200508996,1
190,0.0,2.0,41.0,49.5,35.0,1.0,2.1237916009999935,0.25271287499998607,3.0,4.0,51.26849604249131,1
191,0.0,2.0,42.0,59.125,6.25,1.0,1.2186605499999814,5.262146460999986,11.0,2.0,56.775620907034124,1
192,0.0,2.0,43.0,51.75,4.5,1.0,1.5907206889999657,25.298379624000006,12.0,4.0,50.40892679877253,1
193,0.0,2.0,44.0,33.0,8.5,1.0,1.3199584449999975,0.43453102499995566,10.0,3.0,34.350230180097746,1
194,0.0,2.0,45.0,91.625,9.5,1.0,1.5693318410000074,0.5905412959999694,9.0,3.0,91.5578222632411,1
195,0.0,2.0,46.0,52.875,5.0,0.0,2.2752153210000188,0.36771235999998453,0.0,5.0,48.1618074270167,1
196,0.0,2.0,47.0,55.5,17.75,1.0,1.389101965000009,0.4037060250000195,6.0,6.0,55.060141005122034,1
197,0.0,2.0,48.0,59.75,5.0,1.0,1.0889070289999836,0.33108285500003376,12.0,4.0,59.48894677974076,1
198,0.0,2.0,49.0,46.75,0.75,0.0,0.9335124759999758,0.34870351500001107,0.0,2.0,47.94566302550533,1
199,0.0,2.0,50.0,35.25,7.0,0.0,1.4366712620000044,0.28593041699997457,0.0,4.0,26.908392096415835,1
200,0.0,2.0,51.0,78.875,3.25,1.0,1.26538647000001,0.31741085800001656,13.0,2.0,77.62624126867489,1
201,0.0,2.0,52.0,66.375,4.75,1.0,2.2555826490000186,0.4074621330000241,12.0,5.0,68.47864763292304,1
202,0.0,2.0,53.0,51.875,19.25,1.0,2.1400821080000014,0.3491407549999508,6.0,3.0,44.78687786820377,1
203,0.0,2.0,54.0,56.0,9.25,1.0,1.54143630599998,0.3672272400000338,9.0,6.0,58.710464260069635,1
204,0.0,2.0,55.0,75.0,4.0,1.0,1.5868213530000048,0.35438168499996436,12.0,2.0,75.65460278509909,1
205,0.0,2.0,56.0,92.375,3.25,1.0,0.9857383049999839,0.41649912000002587,13.0,2.0,92.058341487266,1
206,0.0,2.0,57.0,38.125,8.75,1.0,1.2537714759999972,0.28115776200002074,10.0,3.0,40.32088675274374,1
207,0.0,2.0,58.0,80.375,13.0,1.0,0.9362910300000067,0.33220931100004236,8.0,3.0,74.84448544730854,1
208,0.0,2.0,59.0,53.125,2.25,1.0,0.8188057439999739,8.504397318999963,13.0,2.0,53.0756462497124,1
209,0.0,2.0,60.0,59.625,2.75,1.0,1.2883241920000046,0.29996113400000013,13.0,4.0,58.96235311533964,1
210,0.0,2.0,61.0,42.375,9.0,1.0,0.8046951779999745,0.3037954549999995,10.0,5.0,39.135493560676295,1
211,0.0,2.0,62.0,51.875,5.0,1.0,1.1402802549999933,0.34938180500000726,12.0,4.0,50.897046117025305,1
212,0.0,2.0,63.0,49.25,5.25,1.0,1.2491051599999992,0.9536325720000036,12.0,3.0,48.74818153221506,1
213,0.0,2.0,64.0,41.875,7.75,1.0,1.188752284999964,0.2998186419999911,10.0,4.0,44.35291505591317,1
214,0.0,2.0,65.0,90.0,5.75,1.0,1.238418084999978,0.33207331500000237,11.0,3.0,87.49892724540712,1
215,0.0,2.0,66.0,71.375,17.5,1.0,0.9285325679999801,0.299544562000051,6.0,2.0,67.05598469921699,1
216,0.0,2.0,67.0,60.375,14.25,0.0,0.9543704440000056,0.33689071499998136,0.0,5.0,48.314241756227354,1
217,0.0,2.0,68.0,33.125,34.75,1.0,0.8017406499999993,0.3205842349999557,3.0,3.0,38.95815426533451,1
218,0.0,2.0,69.0,36.625,15.5,1.0,0.9884167110000135,0.33559898000004296,7.0,3.0,41.76592218143235,1
219,0.0,2.0,70.0,55.75,7.0,0.0,1.0047862160000136,0.38219515999998066,0.0,4.0,49.305574950674085,1
220,0.0,2.0,71.0,55.75,19.0,1.0,0.6186150659999612,0.7710252600000445,6.0,3.0,58.11119539964815,1
221,0.0,2.0,72.0,89.375,7.0,0.0,1.4039693080000006,0.5192437599999948,0.0,2.0,85.73996779344988,1
222,0.0,2.0,73.0,42.625,10.75,0.0,1.137573099000008,0.3665101770000092,0.0,3.0,50.12076121399658,1
223,0.0,2.0,74.0,61.75,25.25,1.0,3.123751205000019,0.304393747000006,4.0,5.0,61.047593594240084,1
224,0.0,2.0,75.0,7.875,0.0,0.0,1.4679705060000288,0.1334001210000224,0.0,2.0,7.736372597897279,1
225,0.0,2.0,76.0,5.75,7.75,0.0,3.427082753000036,0.60158540000009,0.0,4.0,11.632650975805372,1
226,0.0,2.0,77.0,66.25,1.0,1.0,1.4042942180000182,0.41867716500007646,14.0,2.0,66.10491354791131,1
227,0.0,2.0,78.0,62.875,3.5,0.0,2.3071729670000423,0.4674410940000371,0.0,4.0,64.72207656986713,1
228,0.0,2.0,79.0,55.125,13.0,1.0,0.8551145960000213,0.23559878700007175,8.0,5.0,55.32683483106157,1
229,0.0,2.0,80.0,57.25,27.5,1.0,0.7728923209999721,0.3029581480000161,4.0,5.0,57.61377171869585,1
230,0.0,2.0,81.0,68.75,23.75,1.0,0.7297175329999845,1.6710989969999446,5.0,4.0,73.51371015708469,1
231,0.0,2.0,82.0,46.75,8.5,1.0,1.1852633569999398,0.3215990519998968,10.0,2.0,48.476467757560144,1
232,0.0,2.0,83.0,54.125,0.75,0.0,1.171095326999989,0.36897210500001165,0.0,3.0,53.155617848511895,1
233,0.0,2.0,84.0,50.25,4.0,1.0,1.9370364019999897,0.3043825199999901,12.0,2.0,50.73546014615323,1
234,0.0,2.0,85.0,68.625,1.0,1.0,2.7906154899999365,0.43127613499996187,14.0,2.0,68.92599617832884,1
235,0.0,2.0,86.0,60.0,9.25,1.0,0.738312317000009,0.2682604199999332,9.0,5.0,58.56529470136434,1
236,0.0,2.0,87.0,7.75,4.75,1.0,1.4039335580000625,0.34906255600003533,12.0,2.0,8.649529794807158,1
237,0.0,2.0,88.0,34.875,5.0,1.0,0.8722646999999597,0.3692541070000743,12.0,6.0,35.05516723006558,1
238,0.0,2.0,89.0,35.125,4.25,1.0,1.4363224819999232,0.3536580950000143,12.0,2.0,35.06211832430138,1
239,0.0,2.0,90.0,48.75,24.75,1.0,0.6194281929999761,0.2527745730000106,4.0,4.0,60.619416690427585,1
240,0.0,2.0,91.0,41.125,10.0,1.0,1.2545008700000153,0.30083251300004576,9.0,4.0,40.19936852931005,1
241,0.0,2.0,92.0,26.75,18.0,1.0,0.7560134070000686,0.2688432129999683,6.0,5.0,21.34466825735696,1
242,0.0,2.0,93.0,42.125,16.25,1.0,0.7347418769999194,0.258533095999951,7.0,6.0,38.72097278053413,1
243,0.0,2.0,94.0,20.125,19.0,0.0,0.6524323869999762,0.3667923549999159,0.0,4.0,32.654125602402516,1
244,0.0,2.0,95.0,48.375,24.0,0.0,0.6858731309999939,3.380966060999981,0.0,6.0,64.8354901956926,1
245,0.0,2.0,96.0,40.0,18.5,1.0,0.6383464040000035,1.1901222169999528,6.0,6.0,45.65674028425297,1
246,0.0,2.0,97.0,18.75,32.0,1.0,0.9045998469999859,0.2723795519999612,3.0,6.0,28.81293029871026,1
247,0.0,2.0,98.0,32.875,33.5,1.0,0.5712390399999094,0.6018820900000037,3.0,5.0,33.32590691648206,1
248,0.0,2.0,99.0,52.375,11.0,1.0,1.7051104380000197,0.38368397300007473,9.0,2.0,51.792972906397566,1
249,0.0,2.0,100.0,57.25,4.75,1.0,0.9719430259999626,0.2515021120000256,12.0,4.0,57.106382040960185,1
250,0.0,2.0,101.0,49.625,8.0,1.0,0.7688794099999541,0.23243867200005752,10.0,3.0,47.804200778043445,1
251,0.0,2.0,102.0,38.75,9.0,1.0,0.472105082999974,0.26834302299994306,10.0,6.0,39.00292611824955,1
252,0.0,2.0,103.0,50.75,0.0,0.0,0.4703512529999898,0.1380983850000348,0.0,5.0,64.99922909149572,1
253,0.0,2.0,104.0,61.375,22.75,1.0,0.8334772759999396,0.6707894050000505,5.0,4.0,63.249052256108065,1
254,0.0,2.0,105.0,45.375,5.75,0.0,0.7356682580000324,0.3373055499999964,0.0,6.0,53.10824616713058,1
255,0.0,2.0,106.0,61.125,12.25,1.0,2.073235099000044,0.33566364000000704,8.0,5.0,60.97772507985091,1
256,0.0,2.0,107.0,49.25,13.75,1.0,1.2373777139999902,0.3700097979999555,8.0,5.0,48.63923490814348,1
257,0.0,2.0,108.0,41.875,23.25,1.0,1.3215252499999224,0.301039914999933,5.0,5.0,44.74837141679695,1
258,0.0,2.0,109.0,79.5,7.0,1.0,1.5251716150000902,0.3034837720000496,11.0,6.0,78.19739745545375,1
259,0.0,2.0,110.0,39.125,6.75,1.0,0.8820114229999945,0.2844566549999854,11.0,4.0,39.505275835458846,1
260,0.0,2.0,111.0,62.5,12.0,1.0,1.071768278000036,0.27052360499999395,8.0,5.0,62.17499323988767,1
261,0.0,2.0,112.0,54.75,3.25,1.0,1.9524720790000174,0.40866038700005447,13.0,6.0,54.99656900328906,1
262,0.0,2.0,113.0,31.125,4.25,0.0,3.0772020200000725,0.34817052500000045,0.0,4.0,36.67378475698263,1
263,0.0,2.0,114.0,46.5,12.25,0.0,1.1238421570000128,0.23588915799996357,0.0,6.0,40.32698579967019,1
264,0.0,2.0,115.0,71.375,6.0,1.0,1.3522907059999625,0.2850073729999849,11.0,2.0,70.6779291361591,1
265,0.0,2.0,116.0,64.0,8.25,0.0,1.7694979320000357,0.7323490889999675,0.0,4.0,45.90468170793159,1
266,0.0,2.0,117.0,44.0,7.5,1.0,1.0354431409999734,0.515763422999953,10.0,2.0,43.383612494386014,1
267,0.0,2.0,118.0,27.75,12.25,0.0,0.8880564290000166,0.26953069700005017,0.0,5.0,39.403497456158846,1
268,0.0,2.0,119.0,40.125,33.25,1.0,1.287919521000049,0.27121883699999216,3.0,5.0,45.30843500005382,1
269,0.0,2.0,120.0,59.625,24.0,1.0,0.9384624019999137,0.3354823580000357,5.0,4.0,56.20477205270599,1
270,0.0,2.0,121.0,61.75,20.0,0.0,0.6870545650000395,0.36559503199998744,0.0,5.0,42.26042333873979,1
271,0.0,2.0,122.0,44.375,9.25,1.0,0.7707312489999367,0.4859513449999895,9.0,5.0,48.051599720977535,1
272,0.0,2.0,123.0,33.5,15.75,1.0,1.2698970929999405,0.6067127430000028,7.0,5.0,37.164336669439784,1
273,0.0,2.0,124.0,52.0,4.5,0.0,0.7544220009999663,0.33636869800000113,0.0,5.0,47.386619613602754,1
274,0.0,2.0,125.0,53.5,23.75,1.0,1.5024440830000003,0.28820833500003573,5.0,3.0,49.44438564041136,1
275,0.0,2.0,126.0,74.75,15.0,0.0,0.9807693420000305,0.30106459000000996,0.0,6.0,63.09131984817691,1
276,0.0,2.0,127.0,53.375,13.25,1.0,1.1032972330000348,0.2837072150000495,8.0,3.0,48.94078217935945,1
277,0.0,2.0,128.0,56.0,6.5,0.0,1.1533911880000005,0.3205977499999335,0.0,3.0,50.85830241196171,1
278,0.0,2.0,129.0,60.75,0.5,0.0,0.785786207000001,0.3353749359999938,0.0,3.0,60.424695450027514,1
279,0.0,2.0,130.0,54.0,34.5,1.0,0.9213574310000467,0.30165409999995063,3.0,4.0,69.83835079076539,1
280,0.0,2.0,131.0,57.875,12.5,1.0,0.5877756229999704,0.3033759080000209,8.0,6.0,58.6358470553295,1
281,0.0,2.0,132.0,51.125,4.5,1.0,1.0525432049998926,0.40310967000004894,12.0,2.0,49.62625102349137,1
282,0.0,2.0,133.0,58.125,24.25,1.0,0.6697291490000907,0.26669122500004505,4.0,4.0,48.825263421568295,1
283,0.0,2.0,134.0,11.125,7.0,1.0,1.486473462000049,0.4169421029999967,11.0,2.0,10.540567995369004,1
284,0.0,2.0,135.0,75.625,14.25,1.0,1.1495134500000859,0.28150745699997515,7.0,3.0,72.57347378795394,1
285,0.0,2.0,136.0,37.0,42.5,1.0,0.7798137649999717,0.30135239300000194,2.0,6.0,57.72549534276524,1
286,0.0,2.0,137.0,41.625,18.75,1.0,0.7221876660000817,0.3003811730000052,6.0,5.0,41.186037935103315,1
287,0.0,2.0,138.0,50.0,22.25,1.0,0.819696252999961,0.30356244699999024,5.0,6.0,48.64755790150799,1
288,0.0,2.0,139.0,45.75,28.0,1.0,1.1531835760000604,0.3367141100000026,4.0,5.0,52.82751302641318,1
289,0.0,2.0,140.0,46.125,15.25,1.0,1.0066760420000946,0.2814821900000197,7.0,5.0,47.39675012734062,1
290,0.0,2.0,141.0,64.25,3.25,0.0,1.6216168040000412,0.23629976300003364,0.0,3.0,61.929545491031654,1
291,0.0,2.0,142.0,35.125,6.0,1.0,1.4359590349999962,0.2830157590000226,11.0,2.0,35.15771381270935,1
292,0.0,2.0,143.0,27.375,0.5,0.0,1.0026955000000726,0.21986384499996348,0.0,3.0,26.801559199506347,1
293,0.0,2.0,144.0,27.25,44.0,1.0,0.7850983550000592,0.25190673500003413,2.0,4.0,32.646648406859384,1
294,0.0,2.0,145.0,48.5,5.5,1.0,0.7374095619999252,0.3164919989999362,11.0,4.0,46.856257119180796,1
295,0.0,2.0,146.0,36.625,1.5,0.0,0.8857728509999561,0.2839583300000186,0.0,2.0,37.56304366906617,1
296,0.0,2.0,147.0,47.875,9.5,0.0,0.6059891709999192,0.26802693999991334,0.0,6.0,58.48456040136329,1
297,0.0,2.0,148.0,38.0,3.5,1.0,1.003756851999924,0.7508209619999207,13.0,3.0,38.2458607110996,1
298,0.0,2.0,149.0,65.625,3.5,1.0,1.8388029799999686,0.4156164890000582,13.0,4.0,66.37697680504208,1
299,0.0,2.0,150.0,52.0,1.75,1.0,0.8842587059999687,1.0181379969999398,14.0,2.0,51.88551199516525,1
300,1.0,3.0,1.0,81.0,2.0,0.0,7.050351731999967,1.3879838459999974,0.0,2.0,77.8619017282991,1
301,1.0,3.0,2.0,49.0,14.0,1.0,10.308563894999907,1.1204867040000863,7.0,6.0,50.76798815161411,1
302,1.0,3.0,3.0,54.0,4.0,1.0,1.4997059730000046,0.5656035629999678,12.0,3.0,55.187715273436844,1
303,1.0,3.0,4.0,52.0,4.0,0.0,1.8237568959999635,0.7237699120000798,0.0,2.0,48.304888826894796,1
304,1.0,3.0,5.0,47.0,18.0,1.0,4.397173201999976,2.049944068000059,6.0,5.0,53.27143949226983,1
305,1.0,3.0,6.0,20.0,4.0,1.0,6.273704666999947,0.47034607000000506,12.0,3.0,21.037490339793074,1
306,1.0,3.0,7.0,35.0,6.0,0.0,4.599722115000077,0.7853638100000353,0.0,5.0,30.995446751376647,1
307,1.0,3.0,8.0,51.0,6.0,1.0,1.543942199000071,0.35959410400005254,11.0,4.0,51.24448766404046,1
308,1.0,3.0,9.0,70.0,2.0,0.0,2.2967591079999465,0.35890945200003443,0.0,2.0,74.51691921892484,1
309,1.0,3.0,10.0,52.0,4.0,0.0,3.115847975000065,0.3303392970000232,0.0,3.0,66.59213424995188,1
310,1.0,3.0,11.0,67.0,8.0,1.0,4.062343440999939,1.2553517469999633,10.0,2.0,66.91477369642566,1
311,1.0,3.0,12.0,58.0,2.0,0.0,3.7885058109999363,0.41057475999991766,0.0,3.0,55.536957487833995,1
312,1.0,3.0,13.0,46.0,8.0,1.0,3.2996300789999395,0.6093792960000428,10.0,3.0,42.58964486355405,1
313,1.0,3.0,14.0,60.0,8.0,1.0,8.833230349000019,0.9132560799999965,10.0,6.0,61.614397793161174,1
314,1.0,3.0,15.0,51.0,10.0,0.0,1.4792635999999675,0.33130442200001653,0.0,3.0,41.3353747542236,1
315,1.0,3.0,16.0,53.0,16.0,1.0,1.525611882000021,0.3365513179999198,7.0,3.0,55.21131042540865,1
316,1.0,3.0,17.0,65.0,14.0,1.0,3.2461727610000253,1.2808196959999805,7.0,2.0,64.97535892693035,1
317,1.0,3.0,18.0,50.0,8.0,0.0,36.125280987999986,0.6621455449999303,0.0,5.0,34.08719707018383,1
318,1.0,3.0,19.0,48.0,8.0,0.0,9.45583271800001,0.4935727339999403,0.0,4.0,29.832079350980045,1
319,1.0,3.0,20.0,42.0,8.0,0.0,2.480378412999926,0.5905937869999889,0.0,4.0,30.73485135060822,1
320,1.0,3.0,21.0,53.0,20.0,1.0,1.6970158279999623,0.4277310170000419,6.0,4.0,61.96942001102052,1
321,1.0,3.0,22.0,37.0,22.0,0.0,1.602772138999967,0.3971993280000561,0.0,6.0,24.70007788927643,1
322,1.0,3.0,23.0,55.0,2.0,1.0,17.416147462000026,2.3213314990000526,14.0,2.0,55.20230218120001,1
323,1.0,3.0,24.0,37.0,14.0,1.0,5.304309544000034,1.3581136929999502,7.0,3.0,32.73676386487616,1
324,1.0,3.0,25.0,26.0,10.0,0.0,8.39802265000003,0.3798566010000286,0.0,3.0,33.66422290407781,1
325,1.0,3.0,26.0,46.0,4.0,1.0,7.212179601999992,0.8854852699998901,12.0,3.0,46.04299331029588,1
326,1.0,3.0,27.0,50.0,10.0,1.0,1.589304855000023,0.24954244799994285,9.0,4.0,45.228247827432206,1
327,1.0,3.0,28.0,42.0,32.0,1.0,0.8839192049999838,0.18759241800000837,3.0,4.0,56.05086705255211,1
328,1.0,3.0,29.0,48.0,22.0,0.0,2.635898500000053,0.2583820529999912,0.0,5.0,62.52485383586213,1
329,1.0,3.0,30.0,47.0,118.0,1.0,1.1302736149999646,0.23017659900006038,0.0,6.0,59.70333351094839,1
330,1.0,3.0,31.0,56.0,24.0,1.0,5.023195597999916,0.315587359999995,5.0,3.0,58.64380554529132,1
331,1.0,3.0,32.0,62.0,26.0,0.0,0.954301772000008,0.36015878499995324,0.0,5.0,29.380446037497467,1
332,1.0,3.0,33.0,43.0,68.0,1.0,1.6331695459999764,0.3512758520000716,1.0,4.0,51.635188406955066,1
333,1.0,3.0,34.0,50.0,40.0,1.0,0.793124376000037,0.38707170300006055,2.0,3.0,45.1657084828198,1
334,1.0,3.0,35.0,50.0,14.0,1.0,0.6412225249999892,0.42986350199998924,7.0,3.0,50.082970373010255,1
335,1.0,3.0,36.0,51.0,6.0,0.0,0.5250526599999148,0.3141984459999776,0.0,5.0,43.21798726454344,1
336,1.0,3.0,37.0,54.0,26.0,0.0,0.3632974219999596,0.31754591699996126,0.0,4.0,75.6484363828452,1
337,1.0,3.0,38.0,64.0,42.0,0.0,0.9844351549999146,0.3994154190000927,0.0,6.0,33.986608350112085,1
338,1.0,3.0,39.0,46.0,24.0,1.0,0.9529555750000327,0.3911634129999584,5.0,5.0,44.820891984206824,1
339,1.0,3.0,40.0,46.0,10.0,1.0,6.075440871000069,0.40742775100000017,9.0,6.0,50.75326092358639,1
340,1.0,3.0,41.0,52.0,38.0,1.0,1.9800668540000288,0.4017965189999586,2.0,3.0,70.7036787092143,1
341,1.0,3.0,42.0,48.0,22.0,0.0,0.9077537789999042,0.3530453520000947,0.0,5.0,69.10507316140664,1
342,1.0,3.0,43.0,62.0,38.0,0.0,0.6702382199999875,0.4175561079999852,0.0,4.0,31.12248517492862,1
343,1.0,3.0,44.0,41.0,18.0,1.0,0.6138850150000508,0.587684420999949,6.0,6.0,33.103177486410445,1
344,1.0,3.0,45.0,48.0,14.0,0.0,4.831218596999975,0.48384071999998923,0.0,4.0,61.58259816689306,1
345,1.0,3.0,46.0,58.0,4.0,1.0,6.061296485000071,0.9623059259999991,12.0,2.0,58.407711429125904,1
346,1.0,3.0,47.0,68.0,24.0,0.0,0.8901357109999708,0.38476570900002116,0.0,5.0,34.70272455111716,1
347,1.0,3.0,48.0,68.0,10.0,1.0,5.250875984000004,1.1251722079999809,9.0,3.0,70.51709750842569,1
348,1.0,3.0,49.0,50.0,16.0,1.0,9.620262168000068,8.69920180600002,7.0,4.0,47.0363993092587,1
349,1.0,3.0,50.0,43.0,2.0,1.0,5.039494464999962,0.7804146710000168,14.0,2.0,42.70349630805829,1
350,1.0,3.0,51.0,34.0,0.0,1.0,5.671768679000024,0.2305160439998417,15.0,2.0,34.24296944900661,1
351,1.0,3.0,52.0,59.0,6.0,0.0,4.2009737679998125,0.3207541230001425,0.0,5.0,74.61191195887501,1
352,1.0,3.0,53.0,48.0,10.0,1.0,9.538770005999822,0.4209458039999845,9.0,6.0,46.27117359582897,1
353,1.0,3.0,54.0,41.0,2.0,1.0,5.307691987999988,2.2825929840000754,14.0,2.0,41.46523689797368,1
354,1.0,3.0,55.0,33.0,0.0,1.0,6.564884986999914,0.25677328699998725,15.0,2.0,32.98593958836928,1
355,1.0,3.0,56.0,35.0,4.0,1.0,7.046887493000213,0.7697114959998999,12.0,6.0,35.207896355206834,1
356,1.0,3.0,57.0,40.0,4.0,0.0,3.0696408730000257,0.4204865860001519,0.0,6.0,36.31530427902923,1
357,1.0,3.0,58.0,50.0,14.0,1.0,18.906227216999923,0.3146468349998486,7.0,5.0,54.82334975182253,1
358,1.0,3.0,59.0,55.0,6.0,0.0,2.136145277999958,0.34597806200008563,0.0,6.0,59.21635597051837,1
359,1.0,3.0,60.0,62.0,6.0,0.0,2.2063215410000794,0.452292929999885,0.0,6.0,44.79941773076556,1
360,1.0,3.0,61.0,53.0,12.0,0.0,2.1328540770000473,0.3195991200000208,0.0,3.0,68.6091199332052,1
361,1.0,3.0,62.0,7.0,0.0,1.0,4.896219233000011,0.23504158700006883,15.0,2.0,6.894419345436659,1
362,1.0,3.0,63.0,51.0,12.0,0.0,4.261915935999923,0.3784512449999511,0.0,6.0,59.94298755136284,1
363,1.0,3.0,64.0,26.0,4.0,0.0,4.5069447619998755,0.4771430050000163,0.0,4.0,28.597530158638484,1
364,1.0,3.0,65.0,28.0,12.0,0.0,4.366332709000062,1.1573751309999807,0.0,3.0,42.60187220579714,1
365,1.0,3.0,66.0,40.0,8.0,1.0,4.976014615000167,0.3260719119998612,10.0,6.0,40.384255868610815,1
366,1.0,3.0,67.0,58.0,26.0,1.0,4.137150113999951,1.6056376630001523,4.0,3.0,62.87589439825723,1
367,1.0,3.0,68.0,51.0,36.0,1.0,1.0562903929999266,0.36597259200016197,2.0,4.0,45.264120988816856,1
368,1.0,3.0,69.0,30.0,22.0,0.0,0.7924252459999934,0.3599880930000836,0.0,6.0,65.97799809584922,1
369,1.0,3.0,70.0,34.0,16.0,1.0,2.662661608999997,0.3006888260001688,7.0,3.0,31.12566066117279,1
370,1.0,3.0,71.0,60.0,8.0,1.0,4.62283245499998,1.1207524900000863,10.0,3.0,59.184417715828765,1
371,1.0,3.0,72.0,41.0,4.0,0.0,3.5841103180000573,0.3832091080000737,0.0,4.0,37.17501388791723,1
372,1.0,3.0,73.0,48.0,26.0,0.0,8.78876620799997,1.7821410389999528,0.0,4.0,33.29588859531579,1
373,1.0,3.0,74.0,31.0,72.0,1.0,1.021325387999923,0.3954906960000244,0.0,4.0,58.74017602864384,1
374,1.0,3.0,75.0,52.0,68.0,1.0,1.0383340220000719,4.5823624720001135,1.0,4.0,31.79064594521858,1
375,1.0,3.0,76.0,64.0,8.0,0.0,5.185800093999887,0.3918267280000691,0.0,5.0,53.47317339065667,1
376,1.0,3.0,77.0,22.0,2.0,1.0,8.99248214399995,1.1287223840001843,14.0,2.0,22.48698143141845,1
377,1.0,3.0,78.0,55.0,16.0,1.0,1.6903534979999222,0.23504681000008532,7.0,5.0,55.35607137824915,1
378,1.0,3.0,79.0,46.0,0.0,1.0,5.279144854000151,0.5919300399998519,15.0,2.0,46.16893646998007,1
379,1.0,3.0,80.0,46.0,14.0,1.0,1.9608037169998624,0.6058274260001326,7.0,5.0,49.3142256087821,1
380,1.0,3.0,81.0,55.0,6.0,0.0,0.8910924849999446,0.4182181759999821,0.0,3.0,39.10773094672603,1
381,1.0,3.0,82.0,38.0,56.0,1.0,0.8947307930000079,0.35118580799985466,1.0,5.0,22.33388066845813,1
382,1.0,3.0,83.0,52.0,26.0,1.0,0.6697962920000009,0.6954563629999484,4.0,5.0,55.18488404166809,1
383,1.0,3.0,84.0,69.0,20.0,0.0,0.8828867039999295,0.5781944679999924,0.0,5.0,43.44001676597478,1
384,1.0,3.0,85.0,34.0,4.0,0.0,3.7351660379999885,0.3801129069997842,0.0,4.0,37.84649078664084,1
385,1.0,3.0,86.0,73.0,6.0,1.0,4.738422399000001,0.552407459000051,11.0,3.0,74.2403897055827,1
386,1.0,3.0,87.0,38.0,14.0,0.0,17.47579388600002,0.5532904889998917,0.0,6.0,50.7521475039109,1
387,1.0,3.0,88.0,52.0,14.0,1.0,4.35358800400013,0.36831482399998094,7.0,6.0,50.06683418162472,1
388,1.0,3.0,89.0,44.0,64.0,1.0,0.8847102019999511,0.42584500199996,1.0,4.0,51.124097024707496,1
389,1.0,3.0,90.0,47.0,32.0,1.0,0.813056270000061,0.3795980019999661,3.0,6.0,34.02340583428308,1
390,1.0,3.0,91.0,51.0,28.0,0.0,0.6210504929999843,0.3193902650000382,0.0,3.0,34.21698932274104,1
391,1.0,3.0,92.0,64.0,16.0,0.0,0.7036897089999457,0.36620456500008913,0.0,6.0,53.10124860321458,1
392,1.0,3.0,93.0,63.0,56.0,1.0,1.9132713249998687,0.3212818760000573,1.0,4.0,74.19526881400478,1
393,1.0,3.0,94.0,67.0,14.0,0.0,4.102337691999992,1.3831166759998723,0.0,3.0,59.64463569635137,1
394,1.0,3.0,95.0,30.0,2.0,1.0,6.4410195319999275,0.9016275639999094,14.0,2.0,30.541385619445872,1
395,1.0,3.0,96.0,19.0,0.0,1.0,5.862304830000085,0.22594656199999008,15.0,2.0,19.104932342288983,1
396,1.0,3.0,97.0,43.0,14.0,1.0,1.0884025169998495,0.40908786900013183,7.0,6.0,42.777944114783594,1
397,1.0,3.0,98.0,49.0,6.0,1.0,0.9450242440000238,0.3821082669999214,11.0,6.0,49.31404262181195,1
398,1.0,3.0,99.0,45.0,0.0,1.0,3.9803549850000763,0.3275950219999686,15.0,2.0,44.89980313019058,1
399,1.0,3.0,100.0,66.0,2.0,1.0,15.083981114999915,0.9154227129999981,14.0,2.0,66.64196601248231,1
400,1.0,3.0,101.0,48.0,20.0,0.0,5.401948804000085,0.22752680299981876,0.0,6.0,58.89846107718813,1
401,1.0,3.0,102.0,34.0,16.0,1.0,2.8433962010001324,0.2740108450000207,7.0,6.0,38.042031232037736,1
402,1.0,3.0,103.0,56.0,16.0,0.0,2.4634596329999567,0.37705272499988496,0.0,4.0,70.11324693963827,1
403,1.0,3.0,104.0,48.0,8.0,1.0,4.205544445000214,0.3765983260000212,10.0,5.0,48.747263836598805,1
404,1.0,3.0,105.0,45.0,12.0,1.0,2.229487584000026,0.3352051479998863,8.0,5.0,45.728164042523176,1
405,1.0,3.0,106.0,72.0,0.0,1.0,7.760018205000051,0.24650623499996982,15.0,2.0,71.8322418722727,1
406,1.0,3.0,107.0,54.0,44.0,1.0,2.233473882999988,0.34346011500019813,2.0,5.0,61.443956041490836,1
407,1.0,3.0,108.0,45.0,14.0,0.0,1.0118020519998936,0.3846874690000277,0.0,5.0,52.63586011268008,1
408,1.0,3.0,109.0,67.0,6.0,0.0,1.6356029579999358,0.45827881400009574,0.0,4.0,53.70873329540939,1
409,1.0,3.0,110.0,40.0,16.0,1.0,4.660280800999999,0.3355747140001313,7.0,3.0,40.599419831967964,1
410,1.0,3.0,111.0,52.0,12.0,1.0,2.1601548930000263,0.29810392000013053,8.0,4.0,56.97885353710244,1
411,1.0,3.0,112.0,49.0,0.0,1.0,7.40286425499994,0.5873729410000124,15.0,2.0,49.090327561695304,1
412,1.0,3.0,113.0,51.0,18.0,0.0,1.6606899700000213,0.2832375119999142,0.0,6.0,41.021246922852164,1
413,1.0,3.0,114.0,55.0,58.0,1.0,1.05056912200007,0.32822809100002814,1.0,4.0,34.349154892247924,1
414,1.0,3.0,115.0,37.0,10.0,0.0,1.2350856409998414,0.4240143879999323,0.0,6.0,19.829255054823562,1
415,1.0,3.0,116.0,81.0,6.0,1.0,6.090090129000146,1.7104355770002257,11.0,3.0,83.27458806032195,1
416,1.0,3.0,117.0,47.0,16.0,0.0,1.379858608000177,0.3204169770001499,0.0,5.0,54.97961944663872,1
417,1.0,3.0,118.0,57.0,32.0,1.0,0.63075941399984,0.17851830700010396,3.0,5.0,64.57415123410837,1
418,1.0,3.0,119.0,86.0,0.0,1.0,3.7790284840000368,0.19540554700006396,15.0,2.0,85.98877180086139,1
419,1.0,3.0,120.0,58.0,28.0,1.0,2.18528504599999,0.3355107909999333,4.0,5.0,62.60992857879813,1
420,1.0,3.0,121.0,22.0,0.0,1.0,6.964482796000084,0.184756464999964,15.0,3.0,22.069708700059056,1
421,1.0,3.0,122.0,62.0,18.0,1.0,4.670629152999936,0.48576548300002287,6.0,4.0,64.1980820973819,1
422,1.0,3.0,123.0,42.0,2.0,1.0,10.840936146000104,0.6929737870000281,14.0,2.0,42.494350494158255,1
423,1.0,3.0,124.0,23.0,2.0,1.0,7.175643199999968,0.6833287780000319,14.0,2.0,23.570300240108654,1
424,1.0,3.0,125.0,50.0,24.0,0.0,2.2537648529998933,0.192795796999917,0.0,4.0,62.965215343886314,1
425,1.0,3.0,126.0,54.0,28.0,1.0,1.0916493170000194,0.6955889250000382,4.0,3.0,41.39294890242639,1
426,1.0,3.0,127.0,38.0,0.0,1.0,7.479746507000073,0.14695840399986082,15.0,2.0,38.01881982627707,1
427,1.0,3.0,128.0,56.0,12.0,0.0,1.5610625540000456,0.32564374399998997,0.0,4.0,41.50425620761246,1
428,1.0,3.0,129.0,17.0,0.0,1.0,3.2298448690000896,0.15180304599994088,15.0,2.0,17.3194950592639,1
429,1.0,3.0,130.0,57.0,6.0,0.0,2.65460850799991,0.25598485800014714,0.0,5.0,66.4245089373438,1
430,1.0,3.0,131.0,45.0,38.0,1.0,1.4240817000002153,0.25623096300000725,2.0,5.0,31.714104471421695,1
431,1.0,3.0,132.0,58.0,8.0,0.0,3.578283145000114,0.8820157109998945,0.0,5.0,48.36694807974372,1
432,1.0,3.0,133.0,54.0,10.0,0.0,2.3047346329999527,0.3811600129999988,0.0,5.0,48.860469831222886,1
433,1.0,3.0,134.0,32.0,0.0,1.0,7.294938402999833,0.08646551900005761,15.0,2.0,32.45795981578626,1
434,1.0,3.0,135.0,56.0,36.0,0.0,1.1271061859999918,0.33568459100001746,0.0,4.0,34.673234417342826,1
435,1.0,3.0,136.0,47.0,18.0,0.0,0.8229271489999519,0.28437519500016606,0.0,3.0,60.0909442676302,1
436,1.0,3.0,137.0,57.0,48.0,1.0,1.0652317250001033,0.38858750500003225,1.0,5.0,45.08899416115232,1
437,1.0,3.0,138.0,34.0,60.0,1.0,0.8107197209999413,0.4521222799999123,1.0,6.0,43.56674993754313,1
438,1.0,3.0,139.0,60.0,32.0,1.0,1.6780456250000952,0.6697177639998699,3.0,6.0,50.51132603025161,1
439,1.0,3.0,140.0,49.0,36.0,1.0,1.081672330999936,0.4566067609998754,2.0,5.0,36.4112779086173,1
440,1.0,3.0,141.0,64.0,2.0,1.0,5.686431989000084,1.9583412179999868,14.0,2.0,64.15563019289385,1
441,1.0,3.0,142.0,58.0,2.0,0.0,4.087988758000165,0.47351947900006053,0.0,3.0,43.180490214806206,1
442,1.0,3.0,143.0,31.0,4.0,1.0,8.011196659000007,1.4063532489999488,12.0,4.0,28.862745400682634,1
443,1.0,3.0,144.0,66.0,32.0,1.0,4.510572441000022,0.45253007799988154,3.0,6.0,61.1012620229111,1
444,1.0,3.0,145.0,48.0,56.0,1.0,1.0094051200001104,0.38651135999998587,1.0,6.0,75.03163193421624,1
445,1.0,3.0,146.0,55.0,0.0,1.0,9.70279619400003,0.28093538400003126,15.0,2.0,54.93386702234912,1
446,1.0,3.0,147.0,45.0,60.0,1.0,1.334507664000057,0.24490869400005977,1.0,6.0,41.258945346808325,1
447,1.0,3.0,148.0,76.0,16.0,1.0,3.931671784999935,0.9927998880000359,7.0,4.0,68.80454402810054,1
448,1.0,3.0,149.0,43.0,0.0,1.0,5.591241724999918,0.23039350099998046,15.0,2.0,42.99090693598375,1
449,1.0,3.0,150.0,76.0,0.0,1.0,4.501161040999932,0.2220218400000249,15.0,2.0,75.7704141076475,1
450,0.0,4.0,1.0,25.25,5.5,0.0,15.054338902999916,2.048122424999974,0.0,4.0,30.289082309482808,1
451,0.0,4.0,2.0,53.125,8.25,1.0,2.2929526759999135,0.43588354999997136,10.0,5.0,55.909507958668755,1
452,0.0,4.0,3.0,64.5,1.5,1.0,1.1831483480000315,0.41874974999996084,14.0,2.0,64.65575169661746,1
453,0.0,4.0,4.0,31.0,4.0,0.0,1.1227587129999392,0.31506693199980873,0.0,6.0,40.23007185888941,1
454,0.0,4.0,5.0,37.25,46.25,1.0,1.1396694229999866,0.30295331299998907,1.0,6.0,51.90213630656539,1
455,0.0,4.0,6.0,87.75,3.25,1.0,1.8232370700000047,0.6187328430000889,13.0,3.0,87.86483076288012,1
456,0.0,4.0,7.0,58.25,4.0,1.0,1.7049262200000612,0.906247140000005,12.0,3.0,58.09634226387612,1
457,0.0,4.0,8.0,52.625,24.25,1.0,0.7236954740001238,0.30128564999995433,4.0,5.0,44.37540063490629,1
458,0.0,4.0,9.0,43.375,8.75,1.0,1.7353726379999443,0.36941909300003317,10.0,5.0,44.02926525025017,1
459,0.0,4.0,10.0,77.5,2.5,0.0,1.3037618900000325,0.3511744989998533,0.0,3.0,75.87848650797098,1
460,0.0,4.0,11.0,52.25,35.25,1.0,1.0335948030001418,0.2995757380001578,3.0,4.0,59.98249710197269,1
461,0.0,4.0,12.0,56.75,6.75,1.0,0.9020535149998068,0.33459602000016275,11.0,6.0,58.196803642420804,1
462,0.0,4.0,13.0,64.0,15.75,1.0,0.7822668710000471,0.2987722709999616,7.0,2.0,63.2334370787913,1
463,0.0,4.0,14.0,27.125,6.25,0.0,1.8570055279999451,0.33874334000006456,0.0,5.0,35.04066618346295,1
464,0.0,4.0,15.0,43.75,44.5,1.0,0.7867260420000548,0.28766552000001866,2.0,6.0,48.83725069674235,1
465,0.0,4.0,16.0,73.5,5.5,0.0,0.8870080829999551,0.27005515200016816,0.0,5.0,76.30729464565634,1
466,0.0,4.0,17.0,63.5,4.75,0.0,0.6188211209998826,0.3058267579999665,0.0,6.0,59.55390731220432,1
467,0.0,4.0,18.0,38.375,14.0,1.0,1.2538402499999393,0.3338338460000614,7.0,3.0,42.940072452531744,1
468,0.0,4.0,19.0,58.25,21.0,1.0,1.083351121000078,0.39780846500002554,5.0,5.0,49.77766075138588,1
469,0.0,4.0,20.0,10.0,0.75,1.0,1.6779003999999986,0.667888425000001,14.0,2.0,10.061011217187849,1
470,0.0,4.0,21.0,38.875,32.5,0.0,0.9051564979999966,0.2649616450000849,0.0,5.0,56.33728305453394,1
471,0.0,4.0,22.0,66.375,1.75,1.0,1.2027843050000229,0.9018548710000687,14.0,2.0,65.6496226902072,1
472,0.0,4.0,23.0,46.125,19.0,1.0,1.6745154000000184,0.25239415999999437,6.0,6.0,52.21001728978168,1
473,0.0,4.0,24.0,55.75,9.25,1.0,0.8881724499999564,0.269374962000029,9.0,5.0,60.26448800521151,1
474,0.0,4.0,25.0,67.5,17.5,0.0,0.6385116970000126,0.2360380149998491,0.0,5.0,76.95321641283684,1
475,0.0,4.0,26.0,33.25,5.0,1.0,1.0344276850000824,0.31841065799994794,12.0,2.0,33.399759606086995,1
476,0.0,4.0,27.0,43.125,6.25,0.0,0.8044753889998901,0.2863801850000982,0.0,5.0,54.27595723576012,1
477,0.0,4.0,28.0,30.875,4.5,1.0,1.253220715999987,0.6190664999999171,12.0,2.0,30.404598385467995,1
478,0.0,4.0,29.0,52.25,19.0,1.0,1.5575037749999865,0.2045411649999096,6.0,5.0,53.4686031578723,1
479,0.0,4.0,30.0,24.125,4.5,1.0,1.1364852080000674,0.40082283299989285,12.0,2.0,25.295025053685862,1
480,0.0,4.0,31.0,34.25,6.0,1.0,1.2855566959999578,3.2224895960000595,11.0,2.0,32.86832360910784,1
481,0.0,4.0,32.0,30.125,15.75,1.0,1.9898120379998545,0.4507549940001354,7.0,3.0,35.010550059211404,1
482,0.0,4.0,33.0,90.625,6.25,1.0,1.537364658000115,0.4022813800002041,11.0,2.0,88.68267441226831,1
483,0.0,4.0,34.0,32.75,10.25,0.0,1.1901090100000147,0.30328910900016126,0.0,6.0,40.51905842183606,1
484,0.0,4.0,35.0,33.25,41.0,1.0,0.7347038899999916,0.2706264450000617,2.0,3.0,34.22122590047409,1
485,0.0,4.0,36.0,41.75,4.0,0.0,0.939012208000122,0.2534350099999756,0.0,5.0,50.02174081196053,1
486,0.0,4.0,37.0,55.125,35.5,1.0,1.2877522910000607,0.371170525000025,3.0,3.0,51.74349838454935,1
487,0.0,4.0,38.0,66.875,7.75,1.0,1.1701551149999432,0.31666498300000967,10.0,2.0,66.433239537047,1
488,0.0,4.0,39.0,49.375,19.75,1.0,0.8542996499998026,0.23731919700003345,6.0,5.0,52.40560423981996,1
489,0.0,4.0,40.0,40.625,20.5,1.0,0.6541854790000343,0.2685447450000993,5.0,4.0,49.01427314930984,1
490,0.0,4.0,41.0,31.375,5.75,0.0,0.8893953210001655,0.23272503499993036,0.0,6.0,45.53590669783486,1
491,0.0,4.0,42.0,28.75,7.75,1.0,0.8200824900000043,0.2712559870001314,10.0,4.0,31.682755716551654,1
492,0.0,4.0,43.0,53.125,12.25,1.0,2.3928137460000016,0.3177215729999716,8.0,6.0,50.68017967706562,1
493,0.0,4.0,44.0,43.0,16.0,1.0,0.9220306580000397,0.402670629999875,7.0,5.0,46.78870901125508,1
494,0.0,4.0,45.0,86.625,8.0,1.0,1.4322865300000558,0.3487219850001111,10.0,2.0,86.18457690194396,1
495,0.0,4.0,46.0,79.125,11.0,1.0,1.2039550899999085,0.3334178579998479,9.0,3.0,80.90909315359546,1
496,0.0,4.0,47.0,41.75,13.0,0.0,1.057366097999875,0.5702885919999972,0.0,6.0,53.45813059010018,1
497,0.0,4.0,48.0,40.25,3.0,0.0,1.4884628299998894,0.31546127900014653,0.0,4.0,37.94489428625451,1
498,0.0,4.0,49.0,60.75,17.75,1.0,0.7872900610000215,0.3159487820000777,6.0,4.0,53.237305785290715,1
499,0.0,4.0,50.0,55.375,15.25,1.0,0.8866299070000423,0.2997112619998461,7.0,3.0,52.62707448433604,1
500,0.0,4.0,51.0,9.625,7.75,1.0,1.1323778910000328,0.5162450740001532,10.0,2.0,8.892858306507861,1
501,0.0,4.0,52.0,37.75,9.75,0.0,0.9698681899999428,0.28396640500000103,0.0,4.0,48.27875411766313,1
502,0.0,4.0,53.0,18.0,18.5,0.0,1.105777640000042,0.2993579750000208,0.0,4.0,39.89308108818351,1
503,0.0,4.0,54.0,69.375,29.75,1.0,1.2490828830000282,0.23354244000006474,3.0,3.0,66.03364239193526,1
504,0.0,4.0,55.0,9.375,2.0,1.0,1.1851559949998318,0.41492473199991764,14.0,2.0,9.38574957484718,1
505,0.0,4.0,56.0,52.875,2.25,1.0,2.171694521000063,0.30079480499989586,13.0,3.0,53.47816697802606,1
506,0.0,4.0,57.0,45.375,15.25,1.0,0.8656636410000829,0.2735252390000369,7.0,6.0,52.231101941104065,1
507,0.0,4.0,58.0,71.625,3.5,0.0,1.1210014260000207,0.3035780170000635,0.0,4.0,73.9719127240559,1
508,0.0,4.0,59.0,36.875,7.5,0.0,0.7796945470001901,0.4360823080000955,0.0,5.0,42.08480662535434,1
509,0.0,4.0,60.0,63.625,7.75,1.0,1.0866221190001397,0.4158656219999557,10.0,4.0,64.67031685075648,1
510,0.0,4.0,61.0,34.75,7.5,0.0,0.7542476680000618,0.3199190650000219,0.0,5.0,39.09984673724252,1
511,0.0,4.0,62.0,49.25,7.5,1.0,1.7404554270001427,2.1873740809999163,10.0,3.0,48.239525676702236,1
512,0.0,4.0,63.0,60.875,8.5,1.0,0.8404312359998585,0.4351513250001062,10.0,5.0,57.7704437758282,1
513,0.0,4.0,64.0,55.125,26.5,1.0,0.634072925000055,0.24901330800003052,4.0,3.0,57.986780943133006,1
514,0.0,4.0,65.0,26.375,6.0,1.0,1.604049686000053,0.2854580629998509,11.0,2.0,27.31288249625409,1
515,0.0,4.0,66.0,27.0,6.75,1.0,0.9159251309999945,0.35271983999996337,11.0,2.0,26.01954745460569,1
516,0.0,4.0,67.0,50.125,11.5,1.0,0.7377087449999635,0.29938896199996634,8.0,4.0,49.162783084412894,1
517,0.0,4.0,68.0,46.0,15.5,0.0,0.6516418600001543,0.32235729900003207,0.0,5.0,61.01884548907268,1
518,0.0,4.0,69.0,56.0,7.0,1.0,2.1403004430001147,0.416324048999968,11.0,3.0,56.7178881515561,1
519,0.0,4.0,70.0,16.625,21.75,0.0,0.7019295279999369,0.30335791600009543,0.0,5.0,31.889517674131206,1
520,0.0,4.0,71.0,26.625,18.5,1.0,0.8015717809998932,0.28617656999995233,6.0,3.0,28.198988405103318,1
521,0.0,4.0,72.0,39.375,46.0,1.0,1.3076965780001046,0.3023316179999256,2.0,6.0,38.86290969756834,1
522,0.0,4.0,73.0,58.0,23.75,1.0,0.6184126420000666,0.2812032750000526,5.0,4.0,53.48706313268619,1
523,0.0,4.0,74.0,50.5,18.0,1.0,0.738998009999932,0.33792696000000433,6.0,6.0,51.77144693645989,1
524,0.0,4.0,75.0,73.875,11.75,1.0,1.331801811999867,0.38224181500004306,8.0,2.0,73.1650639848614,1
525,0.0,4.0,76.0,70.375,36.5,1.0,0.9174640310000086,0.2704174929999681,2.0,3.0,68.7592203920748,1
526,0.0,4.0,77.0,65.0,28.0,1.0,0.6695211769999787,0.29957938100005777,4.0,3.0,64.09805715606393,1
527,0.0,4.0,78.0,51.625,14.0,1.0,0.8177439149999373,0.2845639399999982,7.0,4.0,51.079002212171574,1
528,0.0,4.0,79.0,49.25,17.75,1.0,0.7673073659998408,0.48228934300004767,6.0,3.0,52.50788025570836,1
529,0.0,4.0,80.0,42.375,11.0,1.0,0.7384403599999132,0.3039550529999815,9.0,5.0,47.38943014328598,1
530,0.0,4.0,81.0,52.5,14.75,1.0,0.6724971329999789,0.26888942000005045,7.0,6.0,47.65489405349728,1
531,0.0,4.0,82.0,43.125,11.25,1.0,0.9542903210001441,9.756576531999826,9.0,3.0,39.744882636021224,1
532,0.0,4.0,83.0,40.75,10.75,1.0,1.789244854000117,0.2676750850000644,9.0,3.0,40.171870129713064,1
533,0.0,4.0,84.0,29.0,24.5,1.0,0.8034045510000851,0.23316265699986616,4.0,4.0,31.64742779662706,1
534,0.0,4.0,85.0,86.375,5.0,1.0,1.076574146999974,0.2987111790000654,12.0,2.0,85.6200656624252,1
535,0.0,4.0,86.0,65.625,5.5,1.0,1.5525183530000959,0.5348223099999814,11.0,3.0,65.0109274588291,1
536,0.0,4.0,87.0,72.375,4.5,1.0,1.05258030899995,0.33614101500006655,12.0,2.0,70.77694483273615,1
537,0.0,4.0,88.0,35.375,11.25,0.0,0.7703276530000949,0.3002170049999222,0.0,5.0,44.006612553938865,1
538,0.0,4.0,89.0,58.375,3.5,1.0,1.7352983900000254,0.3994062849999409,13.0,2.0,58.50585148433464,1
539,0.0,4.0,90.0,54.125,8.25,1.0,0.756293610000057,0.2992355999999745,10.0,6.0,55.45083940481996,1
540,0.0,4.0,91.0,55.75,7.25,0.0,1.2095016550001674,0.4015986700001122,0.0,6.0,61.323368734419525,1
541,0.0,4.0,92.0,63.0,6.5,1.0,1.6706923679998908,0.3208192849999705,11.0,2.0,61.1245259801204,1
542,0.0,4.0,93.0,60.375,9.25,0.0,1.0401102209998498,0.2698665699999765,0.0,6.0,43.82644414485596,1
543,0.0,4.0,94.0,62.75,8.0,1.0,1.4566663059999883,0.33588600699999915,10.0,5.0,64.35489795251166,1
544,0.0,4.0,95.0,29.5,6.25,1.0,1.9753096580000147,0.4005322820000856,11.0,4.0,30.351956252584657,1
545,0.0,4.0,96.0,62.25,3.75,1.0,1.299355246999994,0.3003469390000646,12.0,4.0,61.10716005737781,1
546,0.0,4.0,97.0,48.5,9.25,1.0,1.0715641120000328,0.2996922339998491,9.0,4.0,44.65540494020808,1
547,0.0,4.0,98.0,62.0,12.25,1.0,0.7066989929999181,0.2690535480001017,8.0,6.0,60.87606064099173,1
548,0.0,4.0,99.0,49.375,23.5,1.0,0.9018204930000593,0.3733146559998204,5.0,4.0,54.86231642917286,1
549,0.0,4.0,100.0,71.25,19.25,1.0,0.6191828729999997,0.35149928500004535,6.0,4.0,78.60816603147737,1
550,0.0,4.0,101.0,21.75,11.75,1.0,0.9559829190000073,0.3020566630000303,8.0,4.0,16.897476363715278,1
551,0.0,4.0,102.0,32.5,6.5,0.0,0.7038509519998115,0.368366769999966,0.0,5.0,36.11260275152459,1
552,0.0,4.0,103.0,54.875,6.25,1.0,1.3190963529998498,0.3034826430000521,11.0,2.0,55.955312209475125,1
553,0.0,4.0,104.0,38.875,15.5,0.0,0.7358908719997999,0.31847719500001404,0.0,4.0,26.974438075077195,1
554,0.0,4.0,105.0,38.75,4.75,1.0,0.8004034299999603,0.2996892549999757,12.0,2.0,38.885878622892456,1
555,0.0,4.0,106.0,35.75,7.0,0.0,2.4758126229999107,0.3361555869998938,0.0,4.0,40.455950133963974,1
556,0.0,4.0,107.0,48.75,2.5,0.0,1.2722032829999534,0.30298148299993954,0.0,4.0,50.402420060157304,1
557,0.0,4.0,108.0,59.875,17.75,1.0,0.7217493579998973,0.30094771300014145,6.0,6.0,51.71762230592305,1
558,0.0,4.0,109.0,37.75,25.25,1.0,0.6038234049999573,0.27070483700003933,4.0,5.0,47.15208941933763,1
559,0.0,4.0,110.0,66.25,9.5,1.0,0.5551375689999531,0.302173792000076,9.0,6.0,70.39453829394317,1
560,0.0,4.0,111.0,71.625,6.25,1.0,1.0200263519998316,0.5205248080001184,11.0,5.0,72.10806204430061,1
561,0.0,4.0,112.0,73.25,7.75,0.0,0.9162110110000867,0.36692714199989496,0.0,3.0,77.15078048631015,1
562,0.0,4.0,113.0,72.5,37.75,1.0,0.46733836999987943,0.33978614800003015,2.0,6.0,74.13995429409185,1
563,0.0,4.0,114.0,45.375,1.5,1.0,1.8710064580000108,0.684285970000019,14.0,2.0,45.48072599527234,1
564,0.0,4.0,115.0,25.625,7.5,1.0,0.7531315589999394,0.38176352000004954,10.0,3.0,25.536826060399907,1
565,0.0,4.0,116.0,34.625,8.5,1.0,0.8032874960001664,0.44847635399992214,10.0,3.0,36.117722965878116,1
566,0.0,4.0,117.0,38.375,7.5,1.0,1.1353434449999895,0.3033809650000876,10.0,2.0,40.1211268439752,1
567,0.0,4.0,118.0,40.125,6.5,0.0,1.0227762459999212,0.4169508269999369,0.0,6.0,43.88059542687474,1
568,0.0,4.0,119.0,47.75,12.75,1.0,0.6855118769999535,0.30569690700008323,8.0,6.0,43.88599718777895,1
569,0.0,4.0,120.0,27.125,21.75,0.0,0.7044935640001313,0.2714142949998859,0.0,5.0,40.44122151461151,1
570,0.0,4.0,121.0,44.5,3.0,1.0,1.3206682160000582,0.6640343439999015,13.0,2.0,43.885190272036226,1
571,0.0,4.0,122.0,59.25,9.25,1.0,0.6818149200000789,0.2997514050000518,9.0,4.0,58.44840340612211,1
572,0.0,4.0,123.0,37.25,9.75,1.0,0.58569741600013,0.2692548300001363,9.0,3.0,35.907807263653034,1
573,0.0,4.0,124.0,52.625,4.25,1.0,1.20234453199987,0.39997775000006186,12.0,2.0,52.461324432287945,1
574,0.0,4.0,125.0,68.0,4.5,1.0,1.251833311000155,0.30345078499999545,12.0,2.0,66.79895320817168,1
575,0.0,4.0,126.0,66.375,3.75,0.0,1.1711602129998937,0.366280297000003,0.0,4.0,63.55648771032587,1
576,0.0,4.0,127.0,37.5,16.0,0.0,0.7046503879998909,0.33604853499991805,0.0,6.0,48.34843539818629,1
577,0.0,4.0,128.0,66.625,15.5,1.0,0.9538649410001199,0.36905521499988936,7.0,3.0,62.70228731987038,1
578,0.0,4.0,129.0,53.875,28.25,1.0,0.6552786599997944,0.43416585499994653,4.0,6.0,63.71718260730329,1
579,0.0,4.0,130.0,51.5,20.25,0.0,0.7198535739998988,0.35065957000006165,0.0,4.0,64.54049752798316,1
580,0.0,4.0,131.0,47.5,12.75,1.0,1.286100291000139,0.33395849499993346,8.0,2.0,50.97374775710947,1
581,0.0,4.0,132.0,55.5,12.5,1.0,0.671166102999905,0.402223757999991,8.0,5.0,50.88156683391025,1
582,0.0,4.0,133.0,44.625,24.75,1.0,0.8202852260001237,0.3347275419998823,4.0,6.0,46.135201421227386,1
583,0.0,4.0,134.0,20.625,12.75,1.0,0.8712898490000498,0.43593437799995627,8.0,4.0,16.139048296800638,1
584,0.0,4.0,135.0,35.125,4.5,0.0,1.3399358100000427,0.32979788199986615,0.0,2.0,37.66427033640544,1
585,0.0,4.0,136.0,75.0,8.0,1.0,0.8202073990000827,0.3354262100001506,10.0,3.0,77.20548939544831,1
586,0.0,4.0,137.0,59.125,13.25,0.0,0.6156566300001032,0.46789611000008335,0.0,6.0,67.38558623522793,1
587,0.0,4.0,138.0,63.375,8.25,1.0,0.5693095809999704,0.30518744799996966,10.0,4.0,59.51647278392758,1
588,0.0,4.0,139.0,57.125,9.5,0.0,0.45258892799984096,0.3395593169998392,0.0,6.0,63.25890060056374,1
589,0.0,4.0,140.0,68.125,10.5,0.0,0.4208298709995688,0.3356021280001187,0.0,5.0,57.006520848856304,1
590,0.0,4.0,141.0,10.75,40.75,0.0,0.7552915280002708,0.29702995500019824,0.0,6.0,39.152499557354,1
591,0.0,4.0,142.0,30.75,12.0,1.0,0.7043717800002014,0.335714647000259,8.0,5.0,33.709076808297866,1
592,0.0,4.0,143.0,55.75,10.25,1.0,0.5693113460001769,0.4339756730000772,9.0,3.0,56.23717770809674,1
593,0.0,4.0,144.0,41.125,15.0,0.0,0.621647479999865,0.45314533999999185,0.0,6.0,56.11528104993462,1
594,0.0,4.0,145.0,56.75,12.0,1.0,0.7033735330001036,0.4160563569998885,8.0,3.0,58.86394272100639,1
595,0.0,4.0,146.0,43.375,24.75,1.0,1.307513729999755,0.35113463199968464,4.0,4.0,46.456675471728595,1
596,0.0,4.0,147.0,61.125,11.75,0.0,0.8241644800000358,0.4027855300000738,0.0,5.0,51.92873201245432,1
597,0.0,4.0,148.0,50.75,4.75,1.0,1.1787010230000305,0.3530684350002957,12.0,2.0,50.158118256925476,1
598,0.0,4.0,149.0,27.0,6.0,1.0,1.1541774260003876,0.5165653089998159,11.0,3.0,28.168191592669785,1
599,0.0,4.0,150.0,44.25,19.75,1.0,0.6966490949998843,0.38600676800024303,6.0,4.0,46.60252656081392,1
600,0.0,5.0,1.0,30.5,0.0,0.0,24.507299741999304,0.47946586400212254,0.0,2.0,25.361133424039124,1
601,0.0,5.0,2.0,42.875,19.75,1.0,7.994323320002877,1.4191849779963377,6.0,4.0,36.451998843181535,1
602,0.0,5.0,3.0,36.375,20.5,1.0,1.8020650479957112,0.8016278670038446,5.0,2.0,45.38016843140264,1
603,0.0,5.0,4.0,48.0,6.0,1.0,6.013870930997655,0.9686157739997725,11.0,6.0,50.60669979353186,1
604,0.0,5.0,5.0,43.625,8.0,1.0,1.3384100010007387,0.6178866310001467,10.0,3.0,45.75242695448846,1
605,0.0,5.0,6.0,32.875,7.75,0.0,3.6755630409970763,0.7858368290035287,0.0,4.0,39.76761117694648,1
606,0.0,5.0,7.0,70.5,8.75,1.0,4.344449042997439,0.783561052994628,10.0,2.0,74.87288579114012,1
607,0.0,5.0,8.0,54.375,13.75,1.0,6.384244679000403,0.953420644000289,8.0,5.0,60.13506889818771,1
608,0.0,5.0,9.0,29.75,5.25,0.0,1.5377684150007553,0.5527845749966218,0.0,5.0,35.14965868043648,1
609,0.0,5.0,10.0,36.375,18.5,1.0,4.880750258002081,0.7847038749969215,6.0,3.0,37.94836744144624,1
610,0.0,5.0,11.0,58.75,5.0,1.0,1.3702047980041243,0.603228070998739,12.0,3.0,61.20564501559669,1
611,0.0,5.0,12.0,30.875,14.75,1.0,0.9520545009945636,0.517249090000405,7.0,2.0,33.01269613320234,1
612,0.0,5.0,13.0,41.5,13.0,1.0,0.9207440780010074,0.48474683999666013,8.0,4.0,42.84270419982768,1
613,0.0,5.0,14.0,46.25,2.5,1.0,1.9908576290035853,0.5339539630003856,13.0,6.0,45.37868193638319,1
614,0.0,5.0,15.0,61.75,8.0,1.0,1.3006384769978467,0.6193437420006376,10.0,6.0,59.78869288058995,1
615,0.0,5.0,16.0,44.625,27.5,1.0,0.9360311700002057,0.4176022669998929,4.0,5.0,45.66456617601984,1
616,0.0,5.0,17.0,67.375,10.5,1.0,1.8513668830055394,0.4180103719991166,9.0,3.0,69.63239742385916,1
617,0.0,5.0,18.0,57.125,13.25,1.0,1.0524421819936833,0.8845380999991903,8.0,2.0,57.9194797815277,1
618,0.0,5.0,19.0,30.25,16.25,1.0,1.0368594720057445,0.5174548550057807,7.0,3.0,32.161451227513346,1
619,0.0,5.0,20.0,38.625,12.0,1.0,1.7709157730059815,0.50063930000033,8.0,6.0,33.87220093214548,1
620,0.0,5.0,21.0,76.0,4.0,1.0,2.254445157996088,1.2687393209998845,12.0,5.0,75.67844052875444,1
621,0.0,5.0,22.0,33.875,16.25,0.0,0.8856581470026867,0.5032487549979123,0.0,3.0,46.17545081509011,1
622,0.0,5.0,23.0,49.125,8.0,1.0,1.103400995998527,1.8201676009994117,10.0,4.0,51.06796389343515,1
623,0.0,5.0,24.0,70.0,10.0,1.0,1.5010729350033216,0.585162303999823,9.0,6.0,69.54498668127663,1
624,0.0,5.0,25.0,61.875,7.25,0.0,1.353681938999216,0.4199446159982472,0.0,4.0,69.19872488746903,1
625,0.0,5.0,26.0,47.875,36.0,1.0,0.768354095001996,0.5505017989999033,2.0,6.0,54.642969653492756,1
626,0.0,5.0,27.0,12.25,2.25,1.0,1.636802434004494,1.1181416480030748,13.0,5.0,11.879312733986103,1
627,0.0,5.0,28.0,45.625,11.0,1.0,0.8169820609982708,0.585879003003356,9.0,2.0,47.156073159363956,1
628,0.0,5.0,29.0,45.75,7.75,1.0,1.0008752730063861,0.5008062009947025,10.0,6.0,47.215989611084176,1
629,0.0,5.0,30.0,19.375,2.0,0.0,1.318221197994717,0.6351064199989196,0.0,3.0,21.657406225776246,1
630,0.0,5.0,31.0,50.875,11.25,0.0,1.5369388800027082,0.8515328009962104,0.0,6.0,57.91445275221965,1
631,0.0,5.0,32.0,42.375,15.5,1.0,1.471770825999556,1.471856479998678,7.0,2.0,46.40248325215489,1
632,0.0,5.0,33.0,14.625,9.5,0.0,2.020812290000322,0.6839719199997489,0.0,2.0,21.692196285839046,1
633,0.0,5.0,34.0,56.25,6.0,1.0,1.6361447900053463,0.6511744920062483,11.0,5.0,54.29454151235559,1
634,0.0,5.0,35.0,41.5,9.5,1.0,1.117876015996444,1.3216416719951667,9.0,4.0,39.94568236655996,1
635,0.0,5.0,36.0,48.5,9.0,1.0,3.3566857109981356,0.7678937189994031,10.0,5.0,48.3261473732714,1
636,0.0,5.0,37.0,48.0,4.0,1.0,1.2029449459951138,0.5351428400026634,12.0,3.0,49.02928103402424,1
637,0.0,5.0,38.0,44.5,18.25,0.0,0.8370219240023289,0.6171818040020298,0.0,5.0,55.251801678290896,1
638,0.0,5.0,39.0,65.375,3.5,1.0,0.8694079650013009,0.5358712950037443,13.0,2.0,65.11528594403602,1
639,0.0,5.0,40.0,68.5,3.75,0.0,3.041660894996312,0.48569616000168025,0.0,2.0,65.18351069708045,1
640,0.0,5.0,41.0,33.75,26.25,1.0,1.0331145929958439,0.4189989760052413,4.0,2.0,39.48721221094966,1
641,0.0,5.0,42.0,25.125,43.75,1.0,0.7519577400016715,0.46797170900390483,2.0,4.0,28.372761861571718,1
642,0.0,5.0,43.0,42.75,14.75,1.0,0.7698482389969286,0.7701147609986947,7.0,6.0,46.08629643699696,1
643,0.0,5.0,44.0,49.375,14.0,1.0,1.1320792100013932,0.4357429370065802,7.0,4.0,52.3268244827565,1
644,0.0,5.0,45.0,30.125,11.5,1.0,1.4546266039978946,0.966920177997963,8.0,3.0,31.052410898613328,1
645,0.0,5.0,46.0,61.875,7.75,1.0,1.450949652993586,0.5160841800025082,10.0,5.0,60.79917279955778,1
646,0.0,5.0,47.0,65.25,6.75,1.0,1.4018581319978694,0.6362397099946975,11.0,4.0,67.47996577290112,1
647,0.0,5.0,48.0,54.0,2.75,1.0,1.866853125000489,1.354064623999875,13.0,4.0,53.79036939795876,1
648,0.0,5.0,49.0,44.375,4.0,1.0,1.016948999997112,1.7218167709943373,12.0,5.0,45.40311822994954,1
649,0.0,5.0,50.0,34.5,13.25,1.0,1.768462902000465,0.518533242000558,8.0,3.0,37.34295818514804,1
650,0.0,5.0,51.0,47.875,21.75,1.0,0.8518976800041855,0.516744373999245,5.0,3.0,46.84094875736887,1
651,0.0,5.0,52.0,76.875,5.0,1.0,1.182455371003016,0.8694453000061912,12.0,6.0,76.88341413159283,1
652,0.0,5.0,53.0,46.625,28.0,1.0,1.3885971449999488,1.2006705290041282,4.0,6.0,59.69926808724628,1
653,0.0,5.0,54.0,60.25,5.75,1.0,2.337801841000328,0.7839342229999602,11.0,6.0,60.31960239112172,1
654,0.0,5.0,55.0,55.25,23.25,1.0,0.9020586260012351,0.43459429100039415,5.0,5.0,53.78266469305724,1
655,0.0,5.0,56.0,65.0,11.75,1.0,0.7854526000010082,0.8031429019974894,8.0,5.0,67.54009441704883,1
656,0.0,5.0,57.0,48.25,14.5,1.0,0.8503350280006998,0.5861701920002815,7.0,5.0,47.80953971133147,1
657,0.0,5.0,58.0,52.625,7.0,1.0,1.3181702250003582,0.6344261609992827,11.0,3.0,52.64971465799646,1
658,0.0,5.0,59.0,32.875,7.5,1.0,1.6854484819996287,0.7194951409983332,10.0,6.0,33.791757997642605,1
659,0.0,5.0,60.0,37.5,12.25,1.0,1.8384017659991514,0.5861762579952483,8.0,3.0,38.46093197119894,1
660,0.0,5.0,61.0,56.0,15.25,1.0,1.4530546189998859,0.43299392399785575,7.0,2.0,63.1918545174962,1
661,0.0,5.0,62.0,43.125,16.0,1.0,1.1042233359985403,0.5511470030032797,7.0,6.0,45.146426146833754,1
662,0.0,5.0,63.0,73.875,7.25,1.0,1.8885477980002179,0.5490370650004479,10.0,6.0,74.54616214880008,1
663,0.0,5.0,64.0,48.5,17.5,1.0,1.2701128749977215,0.6008234000037191,6.0,3.0,51.395780920622585,1
664,0.0,5.0,65.0,51.0,6.75,1.0,1.4001745180066791,0.4537529350054683,11.0,3.0,52.70612717200562,1
665,0.0,5.0,66.0,85.25,6.75,1.0,1.3684378800026025,0.5845258240005933,11.0,3.0,84.4870148703811,1
666,0.0,5.0,67.0,47.0,12.25,1.0,1.3370935920029297,0.9874963890033541,8.0,5.0,46.38284131109905,1
667,0.0,5.0,68.0,26.5,1.0,1.0,2.5393674919978366,1.4876643280003918,14.0,2.0,26.63645621533407,1
668,0.0,5.0,69.0,35.5,8.0,1.0,1.9046073569988948,0.5511349740045262,10.0,2.0,34.51843597920512,1
669,0.0,5.0,70.0,27.75,9.25,1.0,1.6357714039986604,0.5854506190007669,9.0,2.0,27.95068079005825,1
670,0.0,5.0,71.0,61.0,0.5,1.0,1.8039486729976488,1.120382928995241,15.0,4.0,61.03795108102614,1
671,0.0,5.0,72.0,54.375,6.75,1.0,1.4889593939951737,0.8855603550036903,11.0,3.0,55.748221775628245,1
672,0.0,5.0,73.0,24.25,15.5,0.0,1.1695668890024535,0.4835735329979798,0.0,5.0,37.93373923992047,1
673,0.0,5.0,74.0,47.375,2.5,1.0,1.4017000599997118,0.9691152470040834,13.0,4.0,46.44025373616819,1
674,0.0,5.0,75.0,37.625,17.0,1.0,1.1340769359958358,0.45214979300362756,6.0,6.0,36.73812354864866,1
675,0.0,5.0,76.0,52.875,24.0,1.0,0.6517730229970766,0.41848923500219826,5.0,4.0,51.61379894420078,1
676,0.0,5.0,77.0,30.5,11.25,1.0,0.8341089160021511,0.5516335010033799,9.0,5.0,33.59092035503369,1
677,0.0,5.0,78.0,71.625,10.25,1.0,0.8672775500017451,0.5519141330005368,9.0,4.0,76.13257224229855,1
678,0.0,5.0,79.0,32.875,6.75,1.0,1.23477853499935,0.7854044060004526,11.0,3.0,33.597348395368435,1
679,0.0,5.0,80.0,42.375,12.5,1.0,1.2702000240024063,0.48490658499940764,8.0,3.0,40.76361256304589,1
680,0.0,5.0,81.0,49.75,6.75,0.0,1.237070301998756,0.5842646689998219,0.0,2.0,54.53188219793992,1
681,0.0,5.0,82.0,61.375,4.0,1.0,0.7691581629987922,0.6191473489961936,12.0,5.0,60.91783433189036,1
682,0.0,5.0,83.0,65.625,5.0,1.0,1.7847666099987691,0.919166759995278,12.0,4.0,65.77010746506133,1
683,0.0,5.0,84.0,20.625,9.75,0.0,0.8528769249969628,0.4525673000025563,0.0,6.0,30.69601407373798,1
684,0.0,5.0,85.0,38.5,4.25,1.0,1.7182846590003464,0.7174291650007945,12.0,6.0,39.4743540074177,1
685,0.0,5.0,86.0,31.375,16.0,1.0,1.1196863340010168,0.4348655920039164,7.0,5.0,34.61844935107559,1
686,0.0,5.0,87.0,37.625,18.0,1.0,1.1352638530006516,0.43555658499826677,6.0,2.0,40.28841635663037,1
687,0.0,5.0,88.0,44.375,6.75,1.0,1.6367195139973774,0.5181800700011081,11.0,5.0,43.44067075487339,1
688,0.0,5.0,89.0,49.625,7.75,1.0,1.420495940001274,0.45484147899696836,10.0,4.0,51.44809413333419,1
689,0.0,5.0,90.0,55.25,7.25,1.0,1.4351318900007755,0.5188001099959365,10.0,3.0,55.37433247759909,1
690,0.0,5.0,91.0,75.75,11.5,1.0,1.0520992989986553,0.5507649719947949,8.0,6.0,76.98843218184334,1
691,0.0,5.0,92.0,47.75,4.0,1.0,1.2839839910011506,0.8531685209964053,12.0,2.0,48.24269139876734,1
692,0.0,5.0,93.0,60.75,7.25,1.0,1.970991578004032,1.002136238006642,10.0,5.0,60.045751827900084,1
693,0.0,5.0,94.0,28.25,8.75,0.0,1.2031369440010167,0.5691099070027121,0.0,3.0,40.76001009722345,1
694,0.0,5.0,95.0,50.5,14.25,1.0,1.0870804079968366,0.5840632530016592,7.0,2.0,49.79152491194848,1
695,0.0,5.0,96.0,33.5,17.5,1.0,0.8191813339944929,0.5167334600046161,6.0,4.0,37.82448548911543,1
696,0.0,5.0,97.0,34.5,11.0,0.0,1.3198616820009192,0.5360558409956866,0.0,2.0,48.77658758453877,1
697,0.0,5.0,98.0,53.375,8.75,1.0,1.7206346650054911,0.5035549750027712,10.0,4.0,50.888143727894125,1
698,0.0,5.0,99.0,71.75,19.0,1.0,0.8697712990033324,0.4527474569986225,6.0,4.0,63.64453420188476,1
699,0.0,5.0,100.0,43.75,12.25,1.0,0.9671702420018846,0.501236270996742,8.0,4.0,47.840607773794005,1
700,0.0,5.0,101.0,28.0,16.75,1.0,1.4025258470064728,0.6031169460038655,6.0,5.0,30.77870843916303,1
701,0.0,5.0,102.0,35.375,9.75,1.0,1.5524957800007542,0.4676637029988342,9.0,4.0,35.07102416123162,1
702,0.0,5.0,103.0,17.625,2.25,1.0,1.835117212998739,0.585992897998949,13.0,5.0,17.747293599206177,1
703,0.0,5.0,104.0,32.625,8.0,1.0,0.9177765299973544,0.4025293570011854,10.0,3.0,31.26240528879804,1
704,0.0,5.0,105.0,68.375,13.0,1.0,0.872293680004077,0.850583090003056,8.0,5.0,64.30345841256722,1
705,0.0,5.0,106.0,43.25,21.0,1.0,0.9844126659954782,0.6701647290028632,5.0,6.0,48.632548137740095,1
706,0.0,5.0,107.0,59.0,19.25,1.0,0.769511942002282,0.45195363400125643,6.0,6.0,59.818992944883945,1
707,0.0,5.0,108.0,35.5,49.75,1.0,0.7999980930035235,0.4505000480057788,1.0,2.0,49.167031236387196,1
708,0.0,5.0,109.0,62.75,4.25,0.0,1.3031525979968137,0.4687124039992341,0.0,4.0,68.90295803186496,1
709,0.0,5.0,110.0,62.625,8.5,1.0,0.8162847819985473,0.4354333730007056,10.0,4.0,60.66068161011108,1
710,0.0,5.0,111.0,59.25,21.5,1.0,0.8697377360003884,0.5325559630000498,5.0,2.0,52.82804736437121,1
711,0.0,5.0,112.0,34.25,27.25,1.0,1.0198011829997995,0.38526838100369787,4.0,6.0,41.857979972738676,1
712,0.0,5.0,113.0,82.5,4.75,1.0,1.5176381330020376,1.0032000680002966,12.0,2.0,82.51422477567526,1
713,0.0,5.0,114.0,31.625,5.0,1.0,1.6356285189976916,1.1855455360055203,12.0,2.0,31.85502482713059,1
714,0.0,5.0,115.0,77.5,19.0,1.0,0.9362834489948,1.3029477170057362,6.0,2.0,81.0872208244055,1
715,0.0,5.0,116.0,70.25,5.5,1.0,1.1671990870017908,0.8011176919972058,11.0,5.0,68.69690678349244,1
716,0.0,5.0,117.0,41.75,65.5,1.0,0.7202767599956132,5.586479770994629,1.0,2.0,60.85827040457906,1
717,0.0,5.0,118.0,65.0,4.25,1.0,1.8698972299971501,0.9198816050047753,12.0,2.0,65.51822937536647,1
718,0.0,5.0,119.0,49.125,2.75,1.0,1.116537406000134,0.8699411449997569,13.0,3.0,49.1554517064933,1
719,0.0,5.0,120.0,56.625,8.75,0.0,1.7369870210022782,1.336065048002638,0.0,6.0,65.01106281507664,1
720,0.0,5.0,121.0,38.25,3.5,1.0,2.455478525000217,1.050077842999599,13.0,5.0,38.48497747620315,1
721,0.0,5.0,122.0,30.0,9.0,1.0,1.6016636940039461,1.4702855399955297,10.0,4.0,32.53395936209103,1
722,0.0,5.0,123.0,74.5,4.75,0.0,4.911948694003513,0.6533620819973294,0.0,4.0,80.31489870418783,1
723,0.0,5.0,124.0,46.875,23.5,1.0,0.8353045580006437,0.7175885789984022,5.0,6.0,44.644361778893575,1
724,0.0,5.0,125.0,17.5,4.5,1.0,1.1349991649985895,0.9024197179969633,12.0,3.0,18.060359491365197,1
725,0.0,5.0,126.0,36.375,28.0,1.0,0.7357785170024727,0.9509474139995291,4.0,3.0,35.046055779957776,1
726,0.0,5.0,127.0,52.0,9.25,0.0,0.8531406490001245,0.4507985410018591,0.0,3.0,45.47915376199137,1
727,0.0,5.0,128.0,48.625,32.5,1.0,0.7681501979968743,0.5191139849994215,3.0,5.0,44.927875056255814,1
728,0.0,5.0,129.0,85.5,2.75,1.0,1.651247545996739,0.6870516349954414,13.0,3.0,85.31029707025577,1
729,0.0,5.0,130.0,58.875,14.0,1.0,1.3353768749948358,0.5358623580032145,7.0,6.0,57.119697007435704,1
730,0.0,5.0,131.0,65.125,4.75,1.0,0.6992265640001278,0.586376660001406,12.0,3.0,63.2446179576692,1
731,0.0,5.0,132.0,70.375,8.5,0.0,1.4367897549964255,0.415993795999384,0.0,6.0,57.83758140218913,1
732,0.0,5.0,133.0,53.25,18.25,1.0,1.5192515610033297,0.8535428960021818,6.0,2.0,52.017591785033545,1
733,0.0,5.0,134.0,44.5,7.75,0.0,1.0022902749988134,0.7862866840005154,0.0,2.0,52.1619766675652,1
734,0.0,5.0,135.0,43.625,26.75,1.0,1.1842018499955884,0.5354595349999727,4.0,4.0,40.909877490400426,1
735,0.0,5.0,136.0,38.375,12.25,1.0,1.4013159640016966,0.500540823006304,8.0,3.0,35.160024265468756,1
736,0.0,5.0,137.0,19.0,18.75,1.0,1.2372493680013577,0.517609550995985,6.0,4.0,22.421219493333098,1
737,0.0,5.0,138.0,59.625,14.5,1.0,0.7516682360001141,0.5345102220016997,7.0,6.0,59.129226410475916,1
738,0.0,5.0,139.0,13.5,2.25,1.0,2.1376903009950183,0.9365574210023624,13.0,4.0,13.7159688706367,1
739,0.0,5.0,140.0,29.875,5.5,1.0,1.6015891909992206,0.5858364349987824,11.0,2.0,30.990505702620453,1
740,0.0,5.0,141.0,27.0,7.0,1.0,0.9687444159935694,0.6173337740037823,11.0,6.0,26.77021702142319,1
741,0.0,5.0,142.0,63.75,7.75,0.0,0.9345850629979395,0.5683297639989178,0.0,3.0,69.25740623489713,1
742,0.0,5.0,143.0,46.75,17.0,1.0,1.2000492909937748,0.5531486800027778,6.0,5.0,48.011673769357664,1
743,0.0,5.0,144.0,16.75,3.25,1.0,1.7524779380037216,0.8533066699965275,13.0,6.0,17.24510645614873,1
744,0.0,5.0,145.0,27.625,34.0,1.0,1.017407858002116,0.4528706429991871,3.0,4.0,33.51631698410405,1
745,0.0,5.0,146.0,36.0,13.5,1.0,1.3196408540025004,0.4544452300033299,8.0,4.0,38.588687778324946,1
746,0.0,5.0,147.0,75.5,5.0,1.0,1.1834166569969966,0.9349499820018536,12.0,5.0,74.67796718136987,1
747,0.0,5.0,148.0,41.5,8.25,0.0,0.9357642300019506,0.48396448000130476,0.0,5.0,45.70509181764586,1
748,0.0,5.0,149.0,59.25,9.25,0.0,0.53247192499839,0.5361738850042457,0.0,6.0,52.548349909293755,1
749,0.0,5.0,150.0,36.75,3.5,0.0,1.1019049969982007,0.4512941450011567,0.0,5.0,34.97115935087927,1
750,1.0,6.0,1.0,64.0,12.0,1.0,8.210775113999262,0.9577648799968301,8.0,2.0,60.97772507985091,1
751,1.0,6.0,2.0,51.0,16.0,0.0,1.6844792629999574,0.5822129959997255,0.0,3.0,63.890000210602814,1
752,1.0,6.0,3.0,50.0,16.0,1.0,0.9786249719982152,0.7008793759960099,7.0,2.0,55.060141005122034,1
753,1.0,6.0,4.0,86.0,8.0,1.0,7.280971786000009,1.0413022719949367,10.0,3.0,87.49892724540712,1
754,1.0,6.0,5.0,9.0,2.0,1.0,7.051361876998271,1.4555297619954217,14.0,5.0,8.649529794807158,1
755,1.0,6.0,6.0,60.0,6.0,1.0,7.5207479640012025,0.7852821029955521,11.0,2.0,60.424695450027514,1
756,1.0,6.0,7.0,50.0,14.0,1.0,2.6792508069993346,1.521662874998583,7.0,6.0,48.94078217935945,1
757,1.0,6.0,8.0,85.0,6.0,1.0,9.775116405995504,0.8033083219997934,11.0,4.0,85.73996779344988,1
758,1.0,6.0,9.0,56.0,4.0,0.0,3.2954072729990003,0.5742745140014449,0.0,5.0,48.63923490814348,1
759,1.0,6.0,10.0,51.0,6.0,1.0,2.4972299470027792,0.5765427739970619,11.0,6.0,51.31555882401158,1
760,1.0,6.0,11.0,43.0,4.0,1.0,12.283225705003133,1.6370116180041805,12.0,6.0,43.383612494386014,1
761,1.0,6.0,12.0,40.0,8.0,1.0,4.4428198440000415,0.4694354109960841,10.0,5.0,36.67378475698263,1
762,1.0,6.0,13.0,72.0,2.0,1.0,5.315403900000092,2.7157332229980966,14.0,3.0,72.30925549298084,1
763,1.0,6.0,14.0,40.0,14.0,1.0,5.428201051996439,1.108563604997471,7.0,3.0,39.135493560676295,1
764,1.0,6.0,15.0,70.0,4.0,0.0,4.011376562004443,0.9766500559999258,0.0,5.0,72.57347378795394,1
765,1.0,6.0,16.0,47.0,46.0,0.0,1.1116244770018966,3.9448191949995817,0.0,6.0,78.19739745545375,1
766,1.0,6.0,17.0,60.0,16.0,1.0,4.216880646999925,0.5181104699950083,7.0,5.0,58.56529470136434,1
767,1.0,6.0,18.0,38.0,20.0,1.0,3.2324435929986066,0.8272333709974191,6.0,6.0,33.32590691648206,1
768,1.0,6.0,19.0,37.0,2.0,1.0,9.694026338002004,3.0418339380048565,14.0,6.0,37.56304366906617,1
769,1.0,6.0,20.0,52.0,6.0,1.0,2.950214705997496,0.8012135809985921,11.0,4.0,50.897046117025305,1
770,1.0,6.0,21.0,25.0,4.0,0.0,4.034474947002309,0.6651586349980789,0.0,6.0,28.81293029871026,1
771,1.0,6.0,22.0,40.0,6.0,0.0,5.162620490998961,0.8544117720011855,0.0,2.0,35.05516723006558,1
772,1.0,6.0,23.0,51.0,6.0,0.0,2.5667574600010994,0.817407025002467,0.0,2.0,62.17499323988767,1
773,1.0,6.0,24.0,61.0,6.0,0.0,6.091042394000397,0.7718709639957524,0.0,2.0,64.72207656986713,1
774,1.0,6.0,25.0,65.0,6.0,1.0,14.380748752002546,0.8918447450050735,11.0,3.0,66.37697680504208,1
775,1.0,6.0,26.0,31.0,6.0,0.0,5.372893286003091,1.1664938130052178,0.0,5.0,26.801559199506347,1
776,1.0,6.0,27.0,52.0,44.0,1.0,4.905212999001378,10.059720154997194,2.0,6.0,71.83990505572875,1
777,1.0,6.0,28.0,42.0,30.0,1.0,6.645458521001274,0.5330599119988619,3.0,6.0,49.44438564041136,1
778,1.0,6.0,29.0,48.0,4.0,1.0,5.891602397001407,2.1389998119993834,12.0,6.0,48.74818153221506,1
779,1.0,6.0,30.0,55.0,10.0,1.0,7.4566770660021575,0.932720087999769,9.0,3.0,54.99656900328906,1
780,1.0,6.0,31.0,51.0,0.0,1.0,10.931839644996217,0.8847298660039087,15.0,4.0,50.73546014615323,1
781,1.0,6.0,32.0,51.0,16.0,1.0,3.1592406900017522,0.6341733640001621,7.0,6.0,48.825263421568295,1
782,1.0,6.0,33.0,57.0,10.0,0.0,2.189542073996563,0.5264232870031265,0.0,3.0,51.26849604249131,1
783,1.0,6.0,34.0,53.0,16.0,1.0,0.7432617899976321,0.4673681159983971,7.0,6.0,48.1618074270167,1
784,1.0,6.0,35.0,50.0,10.0,0.0,6.335969295003451,0.9688977119949413,0.0,4.0,39.00292611824955,1
785,1.0,6.0,36.0,26.0,8.0,0.0,3.6662023509998107,0.5683470200019656,0.0,3.0,21.34466825735696,1
786,1.0,6.0,37.0,49.0,10.0,1.0,1.9306935720014735,0.5044863949951832,9.0,2.0,48.314241756227354,1
787,1.0,6.0,38.0,50.0,8.0,0.0,18.399991190002766,0.5686434029994416,0.0,6.0,63.249052256108065,1
788,1.0,6.0,39.0,39.0,12.0,1.0,4.568804057002126,1.2640768609999213,8.0,4.0,38.23485973572891,1
789,1.0,6.0,40.0,53.0,12.0,1.0,1.583424204000039,0.5059994039984304,8.0,3.0,52.82751302641318,1
790,1.0,6.0,41.0,66.0,14.0,1.0,2.693789429999015,0.469304694001039,7.0,4.0,63.09131984817691,1
791,1.0,6.0,42.0,63.0,36.0,1.0,5.666340001000208,0.63917818399932,2.0,2.0,68.21287537136531,1
792,1.0,6.0,43.0,55.0,20.0,1.0,1.6043562929990003,0.9503148630028591,6.0,4.0,57.106382040960185,1
793,1.0,6.0,44.0,34.0,4.0,1.0,5.307100558005914,0.7652537879985175,12.0,3.0,35.71241095240921,1
794,1.0,6.0,45.0,36.0,2.0,1.0,6.3981348460001755,1.3203796040033922,14.0,3.0,35.15771381270935,1
795,1.0,6.0,46.0,90.0,4.0,1.0,11.924513584002852,0.7531080659973668,12.0,5.0,91.5578222632411,1
796,1.0,6.0,47.0,53.0,2.0,1.0,6.0352382150013,0.9218297129991697,14.0,6.0,53.0756462497124,1
797,1.0,6.0,48.0,48.0,0.0,1.0,5.022852714995679,0.6096526089968393,15.0,4.0,47.94566302550533,1
798,1.0,6.0,49.0,54.0,8.0,0.0,2.149058443996182,0.7251609629965969,0.0,2.0,48.051599720977535,1
799,1.0,6.0,50.0,14.0,18.0,1.0,5.06592562100559,0.4689133239953662,6.0,4.0,11.632650975805372,1
800,1.0,6.0,51.0,60.0,12.0,1.0,9.296178240998415,0.5590283460041974,8.0,2.0,58.96235311533964,1
801,1.0,6.0,52.0,57.0,0.0,1.0,10.595391804999963,0.3523920840016217,15.0,5.0,56.775620907034124,1
802,1.0,6.0,53.0,77.0,2.0,1.0,12.32676318599988,1.062964163000288,14.0,3.0,77.62624126867489,1
803,1.0,6.0,54.0,47.0,0.0,1.0,1.8063610329991207,0.333627179999894,15.0,6.0,47.00228078114685,1
804,1.0,6.0,55.0,48.0,2.0,1.0,5.918752264995419,0.930414356997062,14.0,2.0,48.476467757560144,1
805,1.0,6.0,56.0,60.0,2.0,1.0,8.97720250400016,0.9301580879982794,14.0,2.0,59.30863004227836,1
806,1.0,6.0,57.0,54.0,6.0,0.0,2.5493129960013903,0.5531203150021611,0.0,3.0,47.804200778043445,1
807,1.0,6.0,58.0,36.0,6.0,0.0,3.595627994996903,0.6557523820010829,0.0,3.0,26.908392096415835,1
808,1.0,6.0,59.0,48.0,20.0,1.0,1.5606586520007113,0.4987062660002266,6.0,2.0,48.688478570817345,1
809,1.0,6.0,60.0,57.0,28.0,1.0,1.41308252899762,0.5086763949948363,4.0,4.0,45.30843500005382,1
810,1.0,6.0,61.0,64.0,10.0,1.0,2.7882591480010888,0.8726830730010988,9.0,5.0,66.53374427471884,1
811,1.0,6.0,62.0,35.0,0.0,1.0,20.525370969000505,0.29994612600421533,15.0,4.0,35.06211832430138,1
812,1.0,6.0,63.0,56.0,0.0,0.0,1.7596058270064532,0.38313982500403654,0.0,3.0,46.856257119180796,1
813,1.0,6.0,64.0,56.0,24.0,1.0,2.3095387749999645,0.9010932460005279,5.0,4.0,58.710464260069635,1
814,1.0,6.0,65.0,39.0,10.0,1.0,3.7552845450045425,1.0855261489996337,9.0,3.0,34.350230180097746,1
815,1.0,6.0,66.0,67.0,0.0,1.0,9.468786942001316,0.7116438320008456,15.0,2.0,67.05598469921699,1
816,1.0,6.0,67.0,59.0,14.0,0.0,3.0527815469977213,0.6678400089949719,0.0,5.0,69.83835079076539,1
817,1.0,6.0,68.0,51.0,24.0,1.0,2.2445919469973887,0.8032546239992371,5.0,3.0,57.52358544529079,1
818,1.0,6.0,69.0,49.0,6.0,0.0,11.776804827997694,0.6115094330016291,0.0,3.0,40.32698579967019,1
819,1.0,6.0,70.0,53.0,18.0,1.0,1.1231368509979802,0.6177478470053757,6.0,4.0,60.619416690427585,1
820,1.0,6.0,71.0,52.0,14.0,0.0,1.2963046720033162,0.5400608970012399,0.0,3.0,37.164336669439784,1
821,1.0,6.0,72.0,51.0,14.0,0.0,2.7924776090003434,0.8172487519987044,0.0,2.0,58.6358470553295,1
822,1.0,6.0,73.0,44.0,26.0,1.0,1.1927708360017277,0.7002886679983931,4.0,3.0,53.10824616713058,1
823,1.0,6.0,74.0,59.0,16.0,0.0,1.8311719760022243,0.6048333270009607,0.0,5.0,24.222398188551786,1
824,1.0,6.0,75.0,70.0,2.0,1.0,8.564814479002962,2.2854509520038846,14.0,2.0,68.92599617832884,1
825,1.0,6.0,76.0,87.0,2.0,1.0,39.33382316999632,1.1504871870056377,14.0,4.0,86.52793522845406,1
826,1.0,6.0,77.0,53.0,8.0,0.0,1.6832591269994737,0.549702486001479,0.0,2.0,41.186037935103315,1
827,1.0,6.0,78.0,55.0,2.0,1.0,22.303939892000926,1.2864747599960538,14.0,4.0,54.84703753315297,1
828,1.0,6.0,79.0,50.0,6.0,0.0,4.460058418000699,0.48640017100115074,0.0,5.0,42.26042333873979,1
829,1.0,6.0,80.0,45.0,30.0,1.0,1.5435318359959638,0.4557058499995037,3.0,5.0,43.06885766031295,1
830,1.0,6.0,81.0,49.0,38.0,1.0,1.0598827770008938,0.4669891279991134,2.0,4.0,42.43206084066187,1
831,1.0,6.0,82.0,58.0,4.0,1.0,6.358615830002236,1.4922821069994825,12.0,2.0,58.11119539964815,1
832,1.0,6.0,83.0,44.0,4.0,1.0,4.820749757003796,0.9796601220004959,12.0,3.0,44.78687786820377,1
833,1.0,6.0,84.0,70.0,10.0,1.0,5.56108341300569,0.611105261996272,9.0,2.0,73.51371015708469,1
834,1.0,6.0,85.0,46.0,16.0,0.0,1.307894486002624,0.5057046209985856,0.0,2.0,56.698166686242054,1
835,1.0,6.0,86.0,56.0,22.0,1.0,1.041887030005455,0.6732123480032897,5.0,5.0,47.386619613602754,1
836,1.0,6.0,87.0,50.0,18.0,0.0,1.1898174939997261,0.42995431799499784,0.0,2.0,38.2458607110996,1
837,1.0,6.0,88.0,59.0,6.0,1.0,7.6173678190025385,1.107386124000186,11.0,6.0,57.61377171869585,1
838,1.0,6.0,89.0,49.0,26.0,1.0,1.8588673720005318,0.40925761999824317,4.0,2.0,41.025780597448104,1
839,1.0,6.0,90.0,70.0,2.0,1.0,9.589148755992937,0.9083323590020882,14.0,4.0,70.6779291361591,1
840,1.0,6.0,91.0,66.0,0.0,1.0,4.971583970000211,0.2889236999981222,15.0,4.0,66.10491354791131,1
841,1.0,6.0,92.0,57.0,6.0,1.0,4.892692904002615,0.6344823010003893,11.0,5.0,58.67436448881457,1
842,1.0,6.0,93.0,42.0,4.0,0.0,7.671427148998191,0.613609659994836,0.0,6.0,39.403497456158846,1
843,1.0,6.0,94.0,47.0,10.0,1.0,19.933344784003566,0.5033571179956198,9.0,4.0,45.65674028425297,1
844,1.0,6.0,95.0,52.0,10.0,0.0,1.5061258839996299,0.9978605110009084,0.0,6.0,44.199471683480944,1
845,1.0,6.0,96.0,49.0,10.0,0.0,2.9806348790007178,2.5698751980016823,0.0,6.0,30.91925200508996,1
846,1.0,6.0,97.0,54.0,20.0,0.0,1.4107063789997483,0.7910011089988984,0.0,6.0,68.47864763292304,1
847,1.0,6.0,98.0,59.0,6.0,0.0,8.202291754998441,0.886400355004298,0.0,5.0,46.20888093926313,1
848,1.0,6.0,99.0,60.0,8.0,0.0,1.7983797439956106,0.5514723759988556,0.0,2.0,40.32088675274374,1
849,1.0,6.0,100.0,56.0,6.0,0.0,3.219260423000378,0.7943335960007971,0.0,4.0,38.95815426533451,1
850,1.0,6.0,101.0,48.0,14.0,0.0,2.1157867389993044,0.5810156600055052,0.0,3.0,58.48456040136329,1
851,1.0,6.0,102.0,53.0,10.0,0.0,1.663562574001844,0.6669743620004738,0.0,6.0,73.30368611804568,1
852,1.0,6.0,103.0,74.0,12.0,0.0,4.078793672997563,0.551836362996255,0.0,5.0,61.047593594240084,1
853,1.0,6.0,104.0,41.0,16.0,1.0,2.5010033780054073,0.5364396590011893,7.0,4.0,47.39675012734062,1
854,1.0,6.0,105.0,50.0,2.0,1.0,4.736431156001345,1.3155195739964256,14.0,6.0,49.62625102349137,1
855,1.0,6.0,106.0,55.0,38.0,1.0,2.604930667002918,0.3987254630046664,2.0,5.0,64.8354901956926,1
856,1.0,6.0,107.0,51.0,16.0,1.0,2.7399250340022263,0.5346436090039788,7.0,5.0,58.74292879619074,1
857,1.0,6.0,108.0,51.0,22.0,1.0,1.9746825950060156,1.0206990559963742,5.0,5.0,57.72549534276524,1
858,1.0,6.0,109.0,53.0,34.0,1.0,1.003581443001167,0.8583081469987519,3.0,6.0,49.36929565051829,1
859,1.0,6.0,110.0,55.0,16.0,0.0,1.8920120050024707,0.7723749629949452,0.0,4.0,43.06153498023023,1
860,1.0,6.0,111.0,49.0,24.0,0.0,1.301922286998888,0.4350027670006966,0.0,5.0,61.929545491031654,1
861,1.0,6.0,112.0,76.0,2.0,1.0,6.406307470999309,1.7750546710012713,14.0,6.0,75.65460278509909,1
862,1.0,6.0,113.0,50.0,34.0,1.0,1.4999038809983176,0.4678575920042931,3.0,4.0,56.20477205270599,1
863,1.0,6.0,114.0,52.0,42.0,1.0,1.1557114410024951,0.3272491249954328,2.0,6.0,49.305574950674085,1
864,1.0,6.0,115.0,7.0,2.0,1.0,4.453704296000069,1.0045974539971212,14.0,2.0,7.736372597897279,1
865,1.0,6.0,116.0,53.0,4.0,1.0,1.543936649999523,0.42425519099924713,12.0,4.0,50.85830241196171,1
866,1.0,6.0,117.0,54.0,14.0,1.0,0.830271635997633,0.3664376180022373,7.0,2.0,53.155617848511895,1
867,1.0,6.0,118.0,52.0,8.0,0.0,0.7666054779983824,0.7518639779955265,0.0,5.0,41.910282632510764,1
868,1.0,6.0,119.0,50.0,4.0,1.0,2.0370543120006914,0.50481054699776,12.0,5.0,50.40892679877253,1
869,1.0,6.0,120.0,45.0,22.0,1.0,1.7881294149992755,4.337759250003728,5.0,4.0,39.505275835458846,1
870,1.0,6.0,121.0,40.0,2.0,1.0,5.185143729999254,0.9708239710016642,14.0,5.0,40.22154026248461,1
871,1.0,6.0,122.0,35.0,6.0,1.0,8.557668360001117,0.8584015169981285,11.0,5.0,32.654125602402516,1
872,1.0,6.0,123.0,51.0,6.0,0.0,2.428888914997515,0.48213907400349854,0.0,5.0,56.95147669934763,1
873,1.0,6.0,124.0,52.0,0.0,1.0,10.1242581339975,0.6960730970022269,15.0,5.0,51.88551199516525,1
874,1.0,6.0,125.0,40.0,6.0,1.0,24.24007333500049,1.056423444999382,11.0,3.0,40.19936852931005,1
875,1.0,6.0,126.0,49.0,6.0,1.0,1.1176667010004167,0.4680554890001076,11.0,6.0,50.12076121399658,1
876,1.0,6.0,127.0,47.0,6.0,0.0,0.8506548160003149,0.41672583900071913,0.0,3.0,64.99922909149572,1
877,1.0,6.0,128.0,29.0,16.0,1.0,4.483740775001934,0.5885629789991071,7.0,3.0,30.61425655030252,1
878,1.0,6.0,129.0,66.0,10.0,1.0,4.347947866997856,0.6999918349974905,9.0,3.0,61.20724786067721,1
879,1.0,6.0,130.0,44.0,20.0,1.0,1.1258773770023254,0.4336108290008269,6.0,4.0,44.74837141679695,1
880,1.0,6.0,131.0,44.0,12.0,0.0,0.865224687004229,0.36938391299918294,0.0,6.0,62.0368383265683,1
881,1.0,6.0,132.0,51.0,0.0,1.0,10.018380039000476,0.4220751199973165,15.0,2.0,50.86134115573758,1
882,1.0,6.0,133.0,50.0,8.0,0.0,64.45915477700328,0.8333430849961587,0.0,4.0,41.76592218143235,1
883,1.0,6.0,134.0,10.0,2.0,1.0,26.598094180997577,1.0272025619997294,14.0,2.0,10.540567995369004,1
884,1.0,6.0,135.0,42.0,8.0,1.0,2.4360147940024035,0.8460489499993855,10.0,3.0,45.90468170793159,1
885,1.0,6.0,136.0,50.0,2.0,0.0,2.7333323109996854,1.452358094000374,0.0,6.0,51.792972906397566,1
886,1.0,6.0,137.0,51.0,62.0,1.0,1.2315676540019922,2.337015715005691,1.0,5.0,77.10841069758102,1
887,1.0,6.0,138.0,42.0,24.0,1.0,4.4417620379972504,1.6196890819992404,5.0,6.0,32.646648406859384,1
888,1.0,6.0,139.0,76.0,6.0,1.0,6.251259014003153,1.2548213340051007,11.0,5.0,74.84448544730854,1
889,1.0,6.0,140.0,47.0,12.0,0.0,2.195296530997439,0.72001206499408,0.0,5.0,55.32683483106157,1
890,1.0,6.0,141.0,48.0,28.0,1.0,1.2996339079982135,0.4193658320000395,4.0,3.0,56.475116752585286,1
891,1.0,6.0,142.0,56.0,24.0,0.0,1.2327989530022023,0.6354743729971233,0.0,2.0,40.62216564226679,1
892,1.0,6.0,143.0,48.0,26.0,0.0,1.5518951620033477,0.5689463700036868,0.0,3.0,61.71504526016881,1
893,1.0,6.0,144.0,52.0,6.0,0.0,1.4532309409987647,0.9925324590003584,0.0,4.0,44.35291505591317,1
894,1.0,6.0,145.0,54.0,22.0,1.0,1.0759290799978771,0.49646397399919806,5.0,4.0,59.48894677974076,1
895,1.0,6.0,146.0,44.0,8.0,0.0,1.4134490810029092,0.4571259939984884,0.0,2.0,56.26969914675636,1
896,1.0,6.0,147.0,49.0,24.0,0.0,3.204757592000533,0.453731475994573,0.0,6.0,24.992380357240336,1
897,1.0,6.0,148.0,92.0,0.0,1.0,12.040943640000478,0.32221588500397047,15.0,3.0,92.058341487266,1
898,1.0,6.0,149.0,45.0,14.0,1.0,37.46664739699918,9.568718176000402,7.0,4.0,48.64755790150799,1
899,1.0,6.0,150.0,46.0,18.0,1.0,43.98437530999945,1.9366228729995782,6.0,2.0,38.72097278053413,1
900,0.0,7.0,1.0,61.125,5.5,1.0,4.610697517004155,1.272591660002945,11.0,2.0,62.60992857879813,1
901,0.0,7.0,2.0,26.0,5.0,0.0,3.613252873001329,0.7660562859964557,0.0,6.0,45.264120988816856,1
902,0.0,7.0,3.0,86.0,0.5,1.0,2.1896741450036643,1.0014000919982209,15.0,3.0,85.98877180086139,1
903,0.0,7.0,4.0,55.125,9.25,1.0,2.324382783997862,0.550873080996098,9.0,2.0,50.76798815161411,1
904,0.0,7.0,5.0,47.875,5.0,0.0,1.8700295119997463,0.6816078030024073,0.0,5.0,33.986608350112085,1
905,0.0,7.0,6.0,47.75,16.0,1.0,1.0405117480040644,0.5379597619976266,7.0,3.0,50.51132603025161,1
906,0.0,7.0,7.0,35.5,3.75,1.0,12.052776695003558,1.353746200002206,12.0,5.0,34.673234417342826,1
907,0.0,7.0,8.0,35.125,4.0,1.0,1.8418301090059686,0.5988763460045448,12.0,4.0,34.349154892247924,1
908,0.0,7.0,9.0,38.5,10.0,1.0,2.060171723001986,0.5201752110006055,9.0,2.0,34.02340583428308,1
909,0.0,7.0,10.0,49.625,20.25,1.0,1.5750484430027427,0.5688576289976481,5.0,3.0,52.63586011268008,1
910,0.0,7.0,11.0,41.125,9.5,0.0,0.9078427589993225,0.4692127700036508,0.0,2.0,50.06683418162472,1
911,0.0,7.0,12.0,62.625,5.0,1.0,1.0415841139983968,0.4124049579986604,12.0,3.0,61.96942001102052,1
912,0.0,7.0,13.0,38.125,11.0,1.0,18.26703185000224,0.8830508700048085,9.0,3.0,32.73676386487616,1
913,0.0,7.0,14.0,85.25,2.5,0.0,0.9365909549960634,0.5200178800005233,0.0,6.0,83.27458806032195,1
914,0.0,7.0,15.0,66.25,30.75,1.0,0.869709200997022,0.46748453600594075,3.0,3.0,62.52485383586213,1
915,0.0,7.0,16.0,75.625,4.0,1.0,1.6541366560049937,1.085308993999206,12.0,3.0,75.7704141076475,1
916,0.0,7.0,17.0,41.5,10.25,1.0,0.8069334450046881,0.4344810399998096,9.0,2.0,45.08899416115232,1
917,0.0,7.0,18.0,52.125,4.5,0.0,0.6508544199969037,0.4151861230056966,0.0,5.0,55.20230218120001,1
918,0.0,7.0,19.0,49.75,25.25,1.0,1.0396086689943331,0.41721170500386506,4.0,4.0,48.860469831222886,1
919,0.0,7.0,20.0,44.5,5.0,1.0,1.187162755006284,0.668284848004987,12.0,4.0,45.1657084828198,1
920,0.0,7.0,21.0,49.5,13.0,1.0,0.7684921020045294,0.43833955700392835,8.0,4.0,50.75326092358639,1
921,0.0,7.0,22.0,30.25,5.0,1.0,1.389374818005308,0.41948331999446964,12.0,6.0,31.12248517492862,1
922,0.0,7.0,23.0,61.0,0.5,0.0,1.2563729820030858,0.43193456000153674,0.0,2.0,60.0909442676302,1
923,0.0,7.0,24.0,47.0,21.25,1.0,1.5538717769959476,0.4027087299982668,5.0,3.0,49.090327561695304,1
924,0.0,7.0,25.0,35.5,5.75,1.0,0.6916564819985069,0.41937715799576836,11.0,3.0,33.103177486410445,1
925,0.0,7.0,26.0,31.25,2.75,0.0,1.3860473739987356,1.3192411770069157,0.0,3.0,32.98593958836928,1
926,0.0,7.0,27.0,44.875,10.5,0.0,0.8203174910013331,0.4345883669957402,0.0,4.0,51.24448766404046,1
927,0.0,7.0,28.0,30.125,39.5,1.0,0.8871196559994132,0.385875722997298,2.0,4.0,41.3353747542236,1
928,0.0,7.0,29.0,16.125,8.0,1.0,1.3700849109955016,0.40340759500395507,10.0,5.0,17.3194950592639,1
929,0.0,7.0,30.0,41.75,14.25,1.0,1.471709653000289,0.6713310109989834,7.0,6.0,48.747263836598805,1
930,0.0,7.0,31.0,48.625,13.5,1.0,1.4378686669952003,0.43415866199939046,8.0,3.0,48.304888826894796,1
931,0.0,7.0,32.0,57.25,23.75,1.0,0.9239832769962959,0.3680154049943667,5.0,5.0,55.35607137824915,1
932,0.0,7.0,33.0,77.25,2.0,0.0,1.4222323229987524,0.4830005420008092,0.0,4.0,74.2403897055827,1
933,0.0,7.0,34.0,48.625,8.75,1.0,0.8893326050019823,0.4214359049947234,10.0,3.0,51.635188406955066,1
934,0.0,7.0,35.0,62.125,22.0,1.0,0.9532719679991715,0.4365110380022088,5.0,3.0,66.59213424995188,1
935,0.0,7.0,36.0,43.25,30.5,1.0,0.9727690099971369,0.43530912999995053,3.0,5.0,48.36694807974372,1
936,0.0,7.0,37.0,46.125,6.0,1.0,1.7538104850027594,1.0361109930017847,11.0,4.0,46.16893646998007,1
937,0.0,7.0,38.0,37.0,15.0,0.0,0.9409277480008313,0.4367520230007358,0.0,6.0,46.27117359582897,1
938,0.0,7.0,39.0,71.625,7.5,1.0,1.0520728720002808,0.6186617560015293,10.0,5.0,71.8322418722727,1
939,0.0,7.0,40.0,60.125,7.75,0.0,0.7206107390011312,0.45260187499661697,0.0,6.0,70.11324693963827,1
940,0.0,7.0,41.0,36.25,12.5,1.0,1.2912923580006463,0.5698167480004486,8.0,3.0,38.042031232037736,1
941,0.0,7.0,42.0,62.375,15.25,1.0,1.5085778959983145,0.4327205099980347,7.0,5.0,69.10507316140664,1
942,0.0,7.0,43.0,17.75,5.0,1.0,1.8387440229998901,0.6333990030034329,12.0,4.0,19.104932342288983,1
943,0.0,7.0,44.0,70.5,8.75,0.0,3.712769825004216,0.734114575003332,0.0,6.0,64.1980820973819,1
944,0.0,7.0,45.0,61.25,5.75,1.0,0.7506062289976398,0.5512738249963149,11.0,4.0,58.64380554529132,1
945,0.0,7.0,46.0,41.5,8.5,1.0,1.0547679020019132,0.635202641999058,10.0,2.0,41.39294890242639,1
946,0.0,7.0,47.0,28.0,7.0,1.0,1.1726448010012973,0.7203842300004908,11.0,5.0,28.862745400682634,1
947,0.0,7.0,48.0,53.625,8.75,1.0,1.1204348090032,0.6012816570000723,10.0,3.0,50.082970373010255,1
948,0.0,7.0,49.0,67.5,10.5,0.0,1.9422876050011837,0.4826270229968941,0.0,4.0,56.97885353710244,1
949,0.0,7.0,50.0,60.5,15.25,1.0,0.9235515670006862,0.4874073099999805,7.0,2.0,54.82334975182253,1
950,0.0,7.0,51.0,49.0,22.5,1.0,9.31252758300252,1.0654366329981713,5.0,2.0,43.44001676597478,1
951,0.0,7.0,52.0,38.75,11.25,1.0,1.9236802270024782,0.8881353229953675,9.0,5.0,37.84649078664084,1
952,0.0,7.0,53.0,21.5,12.75,1.0,1.3712244359994656,0.7732294890010962,8.0,6.0,24.70007788927643,1
953,0.0,7.0,54.0,66.5,46.5,1.0,0.8710548879971611,0.402005210002244,1.0,2.0,62.87589439825723,1
954,0.0,7.0,55.0,57.75,18.5,1.0,0.870869443002448,0.4351273950014729,6.0,2.0,59.21635597051837,1
955,0.0,7.0,56.0,53.625,6.25,1.0,4.500368294000509,0.6024260180056444,11.0,6.0,50.7521475039109,1
956,0.0,7.0,57.0,60.75,5.75,1.0,1.671315562001837,16.527801837997686,11.0,6.0,59.184417715828765,1
957,0.0,7.0,58.0,34.875,18.25,1.0,1.2717703269954654,5.428507188000367,6.0,5.0,33.66422290407781,1
958,0.0,7.0,59.0,64.875,11.0,1.0,1.5210896040007356,0.5335623130013118,9.0,6.0,64.97535892693035,1
959,0.0,7.0,60.0,45.75,5.5,1.0,1.2386175950014149,0.5360467930004233,11.0,6.0,46.04299331029588,1
960,0.0,7.0,61.0,43.0,5.0,1.0,1.1862988049979322,0.598876932002895,12.0,3.0,42.99090693598375,1
961,0.0,7.0,62.0,41.0,7.25,1.0,19.01944070999889,0.6649670979968505,10.0,2.0,40.599419831967964,1
962,0.0,7.0,63.0,32.5,3.25,1.0,2.5380166140021174,0.9544248179954593,13.0,6.0,32.45795981578626,1
963,0.0,7.0,64.0,44.0,19.0,1.0,0.8160616509994725,0.4054260630000499,6.0,4.0,49.31404262181195,1
964,0.0,7.0,65.0,27.875,14.75,1.0,0.9391377239953727,0.4142488110010163,7.0,3.0,29.832079350980045,1
965,0.0,7.0,66.0,58.125,17.25,1.0,0.6870425509987399,0.42255175999889616,6.0,6.0,61.1012620229111,1
966,0.0,7.0,67.0,20.0,15.75,0.0,2.960577411999111,0.4199940799953765,0.0,3.0,29.380446037497467,1
967,0.0,7.0,68.0,52.25,10.5,1.0,1.5235090520000085,0.4698456929982058,9.0,4.0,53.70873329540939,1
968,0.0,7.0,69.0,16.25,9.25,1.0,1.0225543240012485,0.41610405100072967,9.0,6.0,19.829255054823562,1
969,0.0,7.0,70.0,50.875,13.75,1.0,1.054994482001348,0.400880369998049,8.0,3.0,55.18488404166809,1
970,0.0,7.0,71.0,41.75,22.0,1.0,1.9723398549976991,0.4494894870003918,5.0,3.0,42.494350494158255,1
971,0.0,7.0,72.0,11.75,7.5,0.0,38.756896263003,0.6301228629963589,0.0,4.0,31.79064594521858,1
972,0.0,7.0,73.0,47.375,15.5,0.0,1.4052478779995,0.5065061080022133,0.0,4.0,59.94298755136284,1
973,0.0,7.0,74.0,36.5,12.75,0.0,1.9073077919965726,0.46589890400355216,0.0,4.0,51.124097024707496,1
974,0.0,7.0,75.0,35.625,12.25,1.0,2.272778210004617,0.40680165700177895,8.0,4.0,40.384255868610815,1
975,0.0,7.0,76.0,20.875,15.75,1.0,1.3368686020039604,0.4006678150035441,7.0,5.0,21.037490339793074,1
976,0.0,7.0,77.0,54.0,10.5,1.0,1.1215012819957337,0.4037400380038889,9.0,2.0,58.89846107718813,1
977,0.0,7.0,78.0,34.875,21.0,1.0,1.3206098539958475,0.4061485849961173,5.0,5.0,35.207896355206834,1
978,0.0,7.0,79.0,38.75,40.5,1.0,0.5239329050018569,0.4315294250045554,2.0,2.0,43.21798726454344,1
979,0.0,7.0,80.0,27.875,15.75,1.0,1.005398499997682,0.38674202299444005,7.0,5.0,31.714104471421695,1
980,0.0,7.0,81.0,6.875,0.0,0.0,2.105196281001554,0.650257489993237,0.0,3.0,6.894419345436659,1
981,0.0,7.0,82.0,35.5,9.5,0.0,5.937751803998253,0.5022147260024212,0.0,5.0,44.79941773076556,1
982,0.0,7.0,83.0,58.125,11.0,1.0,1.0017201750015374,0.4060332879962516,9.0,5.0,54.97961944663872,1
983,0.0,7.0,84.0,40.25,28.75,1.0,1.2887273250016733,0.38311074399825884,4.0,5.0,43.180490214806206,1
984,0.0,7.0,85.0,60.0,6.75,1.0,0.8199473880013102,0.47262479300115956,11.0,4.0,59.70333351094839,1
985,0.0,7.0,86.0,77.25,2.5,1.0,1.587277359001746,0.6001043440046487,13.0,3.0,77.8619017282991,1
986,0.0,7.0,87.0,34.5,44.0,1.0,1.0060647830032394,0.37054385200463,2.0,6.0,49.3142256087821,1
987,0.0,7.0,88.0,39.625,7.75,1.0,1.2703853190032532,0.46932769299746724,10.0,6.0,41.46523689797368,1
988,0.0,7.0,89.0,66.25,7.5,1.0,1.3211533799985773,0.8215455179961282,10.0,4.0,68.6091199332052,1
989,0.0,7.0,90.0,42.125,8.5,1.0,1.5383131790003972,0.38570467700628797,10.0,6.0,42.60187220579714,1
990,0.0,7.0,91.0,40.75,10.75,1.0,1.272073627995269,0.3988568150016363,9.0,3.0,39.10773094672603,1
991,0.0,7.0,92.0,64.5,18.25,0.0,1.2245809849991929,0.36861189999763155,0.0,6.0,75.03163193421624,1
992,0.0,7.0,93.0,61.75,10.0,1.0,1.2552495280033327,0.3710721889947308,9.0,4.0,61.443956041490836,1
993,0.0,7.0,94.0,61.625,12.25,1.0,0.940357938001398,0.4526890259949141,8.0,3.0,61.614397793161174,1
994,0.0,7.0,95.0,41.75,21.0,0.0,0.8272496089994092,0.3636215930018807,0.0,2.0,53.10124860321458,1
995,0.0,7.0,96.0,66.375,1.75,1.0,1.6715209300018614,0.532287362999341,14.0,2.0,66.91477369642566,1
996,0.0,7.0,97.0,25.125,30.75,1.0,0.639027632001671,0.35223751699959394,3.0,6.0,30.995446751376647,1
997,0.0,7.0,98.0,66.625,36.0,1.0,0.7548811750020832,0.37038354499964043,2.0,6.0,74.19526881400478,1
998,0.0,7.0,99.0,64.0,1.5,1.0,1.702627198996197,0.8678821409994271,14.0,2.0,64.15563019289385,1
999,0.0,7.0,100.0,23.625,1.75,1.0,1.9897988920056378,0.9836776130032376,14.0,2.0,23.570300240108654,1
1000,0.0,7.0,101.0,39.5,5.75,0.0,1.6715364439951372,8.663055224002164,0.0,6.0,36.31530427902923,1
1001,0.0,7.0,102.0,57.875,30.5,1.0,0.8889423049986362,0.40158098000392783,3.0,6.0,61.58259816689306,1
1002,0.0,7.0,103.0,69.0,18.75,1.0,1.1396059790058644,0.43337321499711834,6.0,4.0,68.80454402810054,1
1003,0.0,7.0,104.0,49.625,23.0,1.0,1.0888073829992209,0.43425809000473237,5.0,5.0,45.728164042523176,1
1004,0.0,7.0,105.0,12.25,36.0,0.0,0.8878841019977699,0.4500418199968408,0.0,5.0,33.29588859531579,1
1005,0.0,7.0,106.0,28.875,8.75,1.0,2.171551856001315,0.6000493280007504,10.0,2.0,30.541385619445872,1
1006,0.0,7.0,107.0,54.5,18.25,1.0,39.55671932599944,0.5363157690007938,6.0,5.0,53.27143949226983,1
1007,0.0,7.0,108.0,29.75,18.0,1.0,0.9661181740011671,0.46822342200175626,6.0,5.0,28.597530158638484,1
1008,0.0,7.0,109.0,67.25,11.75,1.0,1.270324762997916,0.4848312719987007,8.0,4.0,70.7036787092143,1
1009,0.0,7.0,110.0,40.75,22.0,1.0,0.9528164199946332,0.42245874000218464,5.0,3.0,47.0363993092587,1
1010,0.0,7.0,111.0,35.0,25.0,1.0,0.7357074890023796,0.4211241829980281,4.0,4.0,34.21698932274104,1
1011,0.0,7.0,112.0,56.25,16.25,1.0,0.8022614440051257,0.41912888499791734,7.0,2.0,55.21131042540865,1
1012,0.0,7.0,113.0,71.0,20.25,1.0,0.5383599250053521,0.45049347899475833,5.0,6.0,66.4245089373438,1
1013,0.0,7.0,114.0,50.625,43.75,1.0,0.8707052490062779,0.38320211799873505,2.0,4.0,55.536957487833995,1
1014,0.0,7.0,115.0,67.125,27.0,1.0,1.772119722001662,0.39890653300244594,4.0,6.0,66.64196601248231,1
1015,0.0,7.0,116.0,44.875,17.0,1.0,0.6530107409998891,0.3666978309993283,6.0,3.0,42.58964486355405,1
1016,0.0,7.0,117.0,33.0,19.75,1.0,0.9354182600000058,0.38381733499409165,6.0,5.0,34.24296944900661,1
1017,0.0,7.0,118.0,67.125,18.75,1.0,0.7554911070037633,0.38137901300069643,6.0,5.0,58.74017602864384,1
1018,0.0,7.0,119.0,36.125,41.0,1.0,0.8728923430026043,0.45314759600296384,2.0,2.0,41.021246922852164,1
1019,0.0,7.0,120.0,35.25,17.0,1.0,0.7372170830058167,0.38201973700051894,6.0,5.0,37.17501388791723,1
1020,0.0,7.0,121.0,26.5,34.25,1.0,1.0878123069996946,0.34954188599658664,3.0,3.0,31.12566066117279,1
